Time,RH.ACC.X,RH.ACC.Y,RH.ACC.Z,RH.GY.X,RH.GY.Y,RH.GY.Z,LH.ACC.X,LH.ACC.Y,LH.ACC.Z,LH.GY.X,LH.GY.Y,LH.GY.Z,RT.ACC.X,RT.ACC.Y,RT.ACC.Z,RT.GY.X,RT.GY.Y,RT.GY.Z,LT.ACC.X,LT.ACC.Y,LT.ACC.Z,LT.GY.X,LT.GY.Y,LT.GY.Z
0.0,-1.598633,0.07666016,-0.8144531,-135.3659,-45.0,113.1098,0.112793,-0.8549805,0.16015629999999997,-0.3658537,1.097561,-11.95122,4.614258,-1.719238,6.723633,339.2073,70.54878000000001,-113.9634,0.1484375,-0.4223633,0.7895508000000001,-1.8292680000000001,-0.8536585999999999,-0.1219512
0.0027,-0.7407227,-0.40234380000000003,0.8232421999999998,-163.0488,-97.92683000000001,119.0854,0.15234379999999997,-0.8564453000000002,0.15625,-3.7195120000000004,1.1585370000000002,-15.36585,4.408691,-1.977051,6.519531,532.0122,135.9756,-139.8781,0.09619141,-0.35839840000000006,0.7900391,-2.012195,3.7195120000000004,1.646341
0.0054,-0.1616211,-0.7929688,1.6206049999999999,-160.7317,-122.3781,125.12200000000001,0.1875,-0.890625,0.1391602,-4.817073000000001,0.7926829000000001,-16.15854,3.9941410000000004,-2.137207,2.836426,620.7318,75.2439,-154.8781,0.06884766,-0.3125,0.7807616999999999,-2.6219509999999997,16.09756,4.02439
0.0081,0.9584961,-1.480957,1.337891,-142.1342,-134.2683,169.6951,0.1591797,-0.9267578000000002,0.140625,-4.939024,0.42682929999999997,-14.329270000000001,3.272949,-1.9174799999999999,0.402832,655.0,-129.1463,-207.56099999999998,0.07080078,-0.2333984,0.7939453000000001,-2.865854,20.304879999999997,3.109756
0.0108,1.375,-1.896973,0.8862305,-152.1342,-119.3293,185.3049,0.05419922,-1.01709,0.1518555,-3.8414639999999998,-0.3048781,-11.219510000000001,1.553223,-1.833984,-2.581055,519.0244,7.682927,-165.6707,0.05664063,-0.22070309999999999,0.8222655999999999,-3.9024389999999998,21.21951,-1.463415
0.0135,2.428711,-2.88916,0.7026366999999999,-153.6585,-131.1585,177.5,0.0078125,-1.04541,0.1459961,0.1219512,0.0,-4.878049,0.6308594,-2.046875,-2.993164,444.2073,217.43900000000002,-100.3049,0.01171875,-0.29150390000000004,0.8642578000000002,-4.878049,19.32927,-1.9512200000000002
0.0162,3.075684,-3.194336,0.7558594,-106.4024,-138.4756,157.1342,-0.01416016,-1.037109,0.17382809999999999,1.036585,1.9512200000000002,-4.939024,-0.4750977,-2.634766,-2.903809,330.3659,653.5366,60.54878000000001,0.01708984,-0.36181640000000004,0.8681641,-7.256098,9.329267999999999,2.073171
0.0189,4.030762,-3.028809,0.7675781,-88.53659,-119.0854,146.7683,-0.01220703,-1.024902,0.1772461,0.2439024,3.04878,-7.439024000000001,-0.5166016,-3.0009770000000002,-2.429199,294.2073,795.6708,109.939,0.11621089999999999,-0.5078125,0.8637695,-8.597561,1.036585,3.4756099999999996
0.0216,3.6801760000000003,-2.338379,0.8085938,-72.0122,-51.15854,119.939,-0.02246094,-1.061035,0.1616211,-3.6585370000000004,1.2804879999999998,-10.609760000000001,-0.44873050000000003,-3.743164,-0.7368164,286.8903,856.7683,92.68293,0.1787109,-0.5615234,0.8779296999999998,-7.987805000000001,-15.0,1.7682930000000001
0.0243,2.994629,-1.9326169999999998,0.675293,-65.0,-15.670729999999999,106.4024,-0.01708984,-1.10791,0.1416016,-5.060976,-0.6707316999999999,-11.219510000000001,-0.5327148,-3.8984379999999996,-0.0625,303.0488,788.4756,39.085370000000005,0.23193360000000002,-0.6035156,0.9072266,-6.5853660000000005,-18.90244,0.1219512
0.027000000000000003,1.380859,-1.1958010000000001,0.09667969,-53.902440000000006,29.7561,90.73170999999999,0.00390625,-1.128906,0.1591797,-3.109756,-1.585366,-11.524389999999999,-0.8984375,-3.5390629999999996,0.6020508000000001,288.4146,546.4634,-108.9024,0.22216799999999998,-0.5629883000000001,0.8911133,-2.682927,-13.231710000000001,-1.036585
0.0297,0.6103516,-0.8803711,-0.2177734,-53.84146,35.79268,88.53659,0.01855469,-1.0512700000000001,0.1772461,-1.2195120000000002,-0.5487805,-12.0122,-1.1333010000000001,-3.104004,0.7788086,261.0366,404.6342,-167.8659,0.2197266,-0.5302734,0.8671875,-1.8292680000000001,-6.097561,-0.2439024
0.0324,-0.6401366999999999,-0.4155273,-0.746582,-64.87805,23.41463,96.64635,0.01855469,-1.004883,0.18017579999999997,-1.2195120000000002,0.6097561,-12.37805,-1.0708010000000001,-2.022461,0.9624023000000002,214.2073,154.8171,-228.0488,0.1811523,-0.4624023,0.7954102,-3.5975610000000002,6.52439,0.6707316999999999
0.0351,-1.035156,-0.33349609999999996,-0.9160155999999999,-75.30488000000001,10.42683,104.3293,0.02685547,-0.9311523000000002,0.1928711,-2.5609759999999997,0.7317073000000001,-12.56098,-0.6899414,-0.7016602,0.984375,204.4512,76.89024,-237.43900000000002,0.15673829999999997,-0.42675779999999996,0.7675781,-6.341464,12.5,1.097561
0.0378,-1.376953,-0.5297852,-1.047852,-97.5,-13.719510000000001,117.1951,0.03369141,-0.9042969000000001,0.1923828,-4.451219999999999,0.6097561,-12.92683,-0.4428710999999999,0.02490234,1.0473629999999998,197.7439,11.890239999999999,-242.8049,0.112793,-0.38818359999999996,0.7475586,-7.682927,13.109760000000001,1.2804879999999998
0.0405,-1.399414,-0.7583008000000001,-1.0126950000000001,-104.7561,-21.58537,122.62200000000001,0.03759766,-0.8974609,0.1518555,-5.3048779999999995,0.5487805,-12.80488,0.03613281,1.693848,1.192871,197.8659,4.878049,-249.5732,0.11083980000000002,-0.38378909999999994,0.7705078000000001,-9.695122,12.62195,1.646341
0.0432,-1.2192379999999998,-1.2685549999999999,-0.8359375,-107.8049,-28.597559999999998,134.8171,0.04150391,-0.9204101999999998,0.10791019999999998,-7.5,-0.42682929999999997,-12.80488,0.20361329999999997,2.4853520000000002,1.4145510000000001,194.7561,-10.18293,-280.9756,0.09228516,-0.38183590000000006,0.8300780999999999,-10.487810000000001,12.92683,1.2804879999999998
0.0459,-0.9428711,-1.5004879999999998,-0.7348633000000001,-99.93903,-22.560979999999997,146.3415,0.07519531,-0.9755859,0.08642578,-10.12195,-0.9146341999999998,-12.86585,0.2504883,3.4282230000000005,1.7548830000000002,203.7195,-17.7439,-299.1464,0.08984375,-0.3842773,0.8486328000000002,-10.54878,12.987810000000001,-0.1219512
0.0486,-0.16601559999999999,-1.8720700000000001,-0.4663085999999999,-95.36585,-18.71951,148.8415,0.08544922,-0.9980469000000001,0.1049805,-9.756098,-0.42682929999999997,-12.92683,0.19335940000000001,3.2871089999999996,1.650879,242.1951,-40.85366,-302.1342,0.08740234,-0.38525390000000004,0.8476563,-10.36585,11.341460000000001,-0.9756098
0.0513,0.23876950000000002,-1.992188,-0.27587890000000004,-83.04878000000001,-17.37805,147.8659,0.05078125,-1.0029299999999999,0.1665039,-7.987805000000001,0.6707316999999999,-11.70732,0.15039059999999999,1.9951169999999998,1.212891,277.9878,-75.36585,-214.0854,0.08203125,-0.38183590000000006,0.831543,-8.841464,3.6585370000000004,-2.5
0.054000000000000006,0.9091796999999998,-2.0620119999999997,0.11083980000000002,-75.2439,-17.37805,145.4268,0.01611328,-0.9931641,0.18554690000000001,-6.951219999999999,0.4878049,-10.609760000000001,0.32128909999999994,1.25,0.96875,288.3537,-81.58537,-148.0488,0.07714844,-0.40087890000000004,0.793457,-8.597561,-0.6707316999999999,-2.6219509999999997
0.0567,1.2416989999999999,-1.927734,0.2314453,-65.73170999999999,-9.573171,139.0244,-0.05371094,-0.9648438,0.2148438,-6.097561,0.6097561,-8.902439,0.9013671999999998,0.07080078,0.4765625,283.1707,-42.5,-42.926829999999995,0.08007813,-0.42626949999999997,0.7773438,-9.085366,-6.463415,-0.4878049
0.0594,1.239746,-1.82666,0.20654299999999998,-65.2439,-1.7073169999999998,135.8537,-0.08935547,-0.9853516,0.2265625,-6.402439,0.7317073000000001,-8.902439,1.1401370000000002,-0.41748050000000003,0.2700195,263.1707,1.646341,-18.292679999999997,0.1020508,-0.5068359,0.7709961,-10.609760000000001,-6.219512,1.3414629999999998
0.0621,0.9326171999999998,-1.6533200000000001,0.06835938,-67.31708,13.719510000000001,132.2561,-0.09521484,-1.0078129999999998,0.22216799999999998,-8.658536999999999,-0.06097561,-10.0,1.299316,-1.384277,0.2275391,201.4025,116.5854,-16.036579999999997,0.13085940000000001,-0.5952148,0.7802734,-13.475610000000001,0.7317073000000001,3.7804879999999996
0.0648,0.7011719,-1.595703,-0.02685547,-67.62196,20.36585,132.3781,-0.07519531,-1.0356450000000001,0.21826170000000003,-10.42683,-0.1219512,-11.097560000000001,1.228516,-1.8310549999999999,0.3295898,170.06099999999998,177.8049,-31.707320000000003,0.14013670000000003,-0.625,0.7998046999999999,-14.024389999999999,6.036585,4.268293
0.0675,0.30078130000000003,-1.573242,-0.21630860000000002,-69.45121999999999,27.31707,131.7683,-0.05859375,-1.03125,0.2158203,-12.2561,-0.7926829000000001,-14.024389999999999,0.8168945,-2.373047,0.6801758000000001,117.8049,275.9756,-76.03659,0.1362305,-0.6469727,0.8354492,-15.548779999999999,14.024389999999999,3.2926830000000002
0.0702,0.1865234,-1.610352,-0.262207,-71.70732,28.41463,130.4268,-0.03027344,-1.024414,0.2080078,-12.68293,-0.6097561,-15.36585,0.5605469,-2.324707,0.8232421999999998,94.93903,307.9268,-90.0,0.1206055,-0.6425781,0.8476563,-15.487810000000001,15.2439,1.9512200000000002
0.0729,0.1821289,-1.7236330000000002,-0.23193360000000002,-75.48781,29.024390000000004,123.2927,-0.02392578,-1.019531,0.2070313,-13.841460000000001,-0.4878049,-16.28049,0.14013670000000003,-1.7231450000000001,1.061523,76.28049,315.9756,-105.12200000000001,0.0859375,-0.6054688,0.8505859,-14.573170000000001,9.634147,0.3048781
0.0756,0.2583008,-1.773438,-0.1694336,-76.82927,29.32927,117.6829,-0.02685547,-1.003418,0.23242190000000001,-14.268289999999999,0.3048781,-15.914629999999999,0.02246094,-1.205566,1.074219,72.43903,301.8903,-107.8049,0.07128906,-0.5820313,0.8457030999999999,-13.597560000000001,-2.195122,0.42682929999999997
0.0783,0.4389648,-1.8095700000000001,0.0034179690000000003,-77.19511999999999,30.36585,105.12200000000001,-0.03857422,-0.9882813,0.2421875,-14.146339999999999,1.036585,-15.731710000000001,-0.11865230000000002,-0.18359379999999997,1.056152,91.09756,249.2073,-120.6707,0.04833984,-0.5566406,0.8173828000000001,-12.68293,-7.682927,1.8292680000000001
0.081,0.4848633,-1.7773439999999998,0.08154297,-76.15854,33.78049,95.06097,-0.04980469,-0.9501953000000002,0.2504883,-14.695120000000001,2.682927,-16.036579999999997,-0.47216800000000003,0.8466796999999998,0.6772461,100.2439,205.1829,-129.4512,0.04003906,-0.5551758000000001,0.8012695,-13.719510000000001,-14.87805,5.670732
0.0837,0.42285159999999994,-1.6362299999999999,0.190918,-75.73170999999999,36.036590000000004,91.46342,-0.06103516,-0.940918,0.2509766,-15.792679999999999,2.804878,-16.76829,-0.550293,1.026367,0.8217773000000002,97.31708,87.80488000000001,-140.4268,0.04443359,-0.5698241999999999,0.777832,-15.060979999999999,-16.52439,7.8048779999999995
0.0864,0.2470703,-1.498047,0.24462889999999998,-74.02439,38.35366,87.2561,-0.05712891,-0.9277344000000001,0.27246090000000006,-18.59756,3.7195120000000004,-18.78049,-0.4838867,0.7158203000000001,1.2026370000000002,102.0122,34.2683,-137.9878,0.05224609,-0.5883789,0.78125,-18.90244,-18.71951,11.890239999999999
0.0891,0.1572266,-1.4560549999999999,0.2563477,-73.17073,38.597559999999994,86.46342,-0.05419922,-0.9238280999999999,0.2827148,-19.695120000000003,4.634146,-19.7561,-0.3139648,0.3769531,1.175781,121.4024,-45.4878,-117.9878,0.05859375,-0.625,0.8105469,-20.91463,-20.91463,12.68293
0.0918,0.04882813,-1.411133,0.2949219,-71.64634000000001,37.7439,86.46342,-0.04882813,-0.9057617,0.2749023,-22.439020000000003,5.731708,-21.03659,0.1533203,-0.3222656,0.9091796999999998,122.62200000000001,-105.4268,-103.5366,0.05761719,-0.6464844,0.8261719000000001,-23.59756,-28.963420000000003,12.80488
0.09450001,0.04101563,-1.3984379999999998,0.331543,-70.36585,36.34146,86.58537,-0.05224609,-0.9155273000000002,0.234375,-24.63415,6.463415,-21.09756,0.36962890000000004,-0.6035156,0.8193359,119.3902,-124.0244,-103.2317,0.05273438,-0.6816406,0.8500976999999998,-24.207320000000003,-35.12195,12.31707
0.0972,0.08935547,-1.3549799999999999,0.41015630000000003,-67.19511999999999,34.2683,85.30488000000001,-0.04980469,-0.9277344000000001,0.2197266,-28.963420000000003,6.463415,-21.58537,0.637207,-0.9208984,0.7202148,114.0854,-128.1707,-111.0976,0.05029297,-0.6953125,0.8574219000000001,-24.32927,-51.402440000000006,10.79268
0.0999,0.1225586,-1.318848,0.44970699999999997,-65.30488000000001,33.597559999999994,84.45123000000001,-0.04931641,-0.9501953000000002,0.22509770000000004,-30.609759999999998,6.829267999999999,-22.62195,0.6943359,-0.9438476999999998,0.6767578000000001,111.2805,-114.6341,-114.4512,0.05712891,-0.7089844,0.8476563,-24.695120000000003,-59.93903,10.12195
0.1026,0.16992190000000001,-1.239746,0.4819335999999999,-62.62195,32.7439,82.43903,-0.04931641,-0.9550780999999999,0.2304688,-32.073170000000005,8.109755999999999,-24.63415,0.7094727,-0.8032227,0.6025391,100.4878,-68.84147,-114.1463,0.06982422,-0.6987305,0.8305664,-26.58537,-77.13415,7.682927
0.1053,0.1987305,-1.213867,0.4672852,-62.0122,32.13415,81.52439,-0.05322266,-0.9462891,0.23193360000000002,-33.35366,8.719512,-25.792679999999997,0.6884766,-0.671875,0.5810546999999999,92.2561,-41.585370000000005,-111.4024,0.08447266,-0.6962891,0.8266601999999998,-27.560979999999997,-83.90244,6.402439
0.10800000000000001,0.1982422,-1.180664,0.4013672,-61.402440000000006,31.524390000000004,79.02439,-0.05273438,-0.9375,0.2255859,-36.34146,8.841464,-28.536590000000004,0.5834961,-0.4013672,0.6162109,76.46342,12.43902,-99.69511999999999,0.11621089999999999,-0.6894531,0.8330078000000002,-30.304879999999997,-92.0122,3.04878
0.1107,0.1826172,-1.166016,0.3686523,-60.4878,30.12195,77.92683000000001,-0.03955078,-0.9375,0.20947270000000004,-40.4878,9.939025,-31.646340000000002,0.5249023,-0.296875,0.6513671999999999,69.63415,36.402440000000006,-92.7439,0.1337891,-0.6865234,0.828125,-30.91463,-91.40244,-0.4878049
0.1134,0.1708984,-1.1333010000000001,0.30078130000000003,-60.12195,29.39025,77.0122,-0.03271484,-0.9428711,0.20263670000000003,-42.80488,9.878049,-33.17073,0.402832,-0.1767578,0.7241211,58.292680000000004,68.10976,-80.60976,0.1606445,-0.6733398,0.8081055,-31.036590000000004,-88.84147,-2.256098
0.1161,0.15820309999999999,-1.119629,0.2910156,-59.329269999999994,27.68293,75.2439,-0.02636719,-0.9624023000000002,0.2236328,-46.21951,10.731710000000001,-35.18293,0.34375,-0.1728516,0.7592773,54.63415,73.96342,-75.85365999999999,0.16796879999999997,-0.6635741999999999,0.8032227,-31.524390000000004,-80.30488000000001,-5.9146339999999995
0.1188,0.16015629999999997,-1.118652,0.3173828,-59.08537,27.0122,73.96342,-0.02685547,-0.9619141,0.2587891,-46.82927,12.0122,-35.85366,0.2592773,-0.2490234,0.8144531,51.46342,66.64634000000001,-68.17073,0.1665039,-0.6748046999999999,0.7646484,-31.280490000000004,-75.67073,-6.890244
0.1215,0.1435547,-1.1518549999999999,0.3623047,-58.475609999999996,25.792679999999997,71.46342,-0.05371094,-0.909668,0.33837890000000004,-47.19512,16.951220000000003,-37.5,0.2138672,-0.3642578,0.8466796999999998,51.82927,55.2439,-65.73170999999999,0.16601559999999999,-0.6918945,0.734375,-31.82927,-71.82927,-10.18293
0.1242,0.11035160000000001,-1.166992,0.3876953,-58.04878000000001,25.48781,70.06097,-0.1391602,-0.8198242,0.3652344,-47.56098,20.2439,-37.9878,0.2138672,-0.4213867,0.8505859,55.12195,27.31707,-61.58537,0.17919920000000003,-0.7998046999999999,0.7260741999999999,-32.7439,-72.07316999999999,-10.79268
0.1269,0.07080078,-1.184082,0.4135742,-56.58537,23.90244,69.63415,-0.1850586,-0.8144531,0.2119141,-52.86586,23.10976,-41.46342,0.24658200000000002,-0.4824219,0.8276367,57.43903,13.475610000000001,-61.036590000000004,0.2519531,-0.8525391,0.8129883000000001,-31.646340000000002,-62.43903,-12.987810000000001
0.1296,0.06835938,-1.184082,0.4233398,-55.91463,22.7439,69.02439,-0.159668,-0.9418945,0.04101563,-60.304880000000004,17.86585,-43.78049,0.2705078,-0.4848633,0.8120116999999999,61.28049,-11.524389999999999,-63.71951,0.3613281,-0.8945313,0.9614258,-25.42683,-52.92683,-15.853660000000001
0.1323,0.06347656,-1.169922,0.4296875,-53.78049,20.18293,67.68293,-0.08789063,-1.010742,0.09375,-68.53659,17.560979999999997,-51.585370000000005,0.30859380000000003,-0.4477539000000001,0.7993164,63.04878000000001,-30.853659999999998,-67.2561,0.3701172,-0.8950195,0.9477539,-15.670729999999999,-30.609759999999998,-22.31707
0.135,0.08007813,-1.165039,0.4301758,-53.23171,18.71951,66.40244,0.02539063,-1.083008,0.1665039,-67.92683000000001,19.81707,-55.670730000000006,0.3168945,-0.4125977,0.7866211,63.597559999999994,-37.86586,-66.82927,0.347168,-0.8657226999999998,0.9243164,-14.207320000000001,-20.67073,-24.5122
0.1377,0.08398438,-1.161621,0.42089840000000006,-51.15854,15.975610000000001,63.536590000000004,0.04296875,-1.0908200000000001,0.14453129999999997,-68.71951,15.2439,-60.0,0.3486328,-0.3520508,0.7460938,62.13415,-45.426829999999995,-63.41463,0.3110352,-0.8051758000000001,1.0073239999999999,-12.43902,-2.926829,-28.719509999999996
0.1404,0.09472656,-1.153809,0.41308590000000006,-50.2439,14.7561,62.92683,0.01806641,-1.088867,0.1015625,-72.31708,4.817073000000001,-58.536590000000004,0.37744140000000004,-0.3364258,0.7338866999999999,60.54878000000001,-45.85366,-60.2439,0.2763672,-0.7597656,1.0546879999999998,-9.512196000000001,5.670732,-31.158540000000002
0.1431,0.1611328,-1.137207,0.3813477,-48.78049,12.7439,60.85366,0.0014648439999999999,-1.07666,0.1118164,-73.10976,1.52439,-57.92683,0.4238281,-0.34277340000000006,0.7080078000000001,54.695119999999996,-38.536590000000004,-53.23171,0.1884766,-0.6611328000000001,1.100586,0.6707316999999999,21.34146,-35.609759999999994
0.1458,0.1904297,-1.133789,0.3666992,-48.04878,10.975610000000001,58.902440000000006,-0.04492188,-1.0126950000000001,0.15576170000000003,-72.68293,-1.9512200000000002,-58.597559999999994,0.4394531,-0.3691406,0.699707,51.34146,-31.768290000000004,-49.81707,0.1362305,-0.6210938,1.100098,9.817074,30.12195,-38.65854
0.1485,0.21337889999999998,-1.1220700000000001,0.3286133,-47.56098,10.79268,58.170730000000006,-0.06787109,-0.9716796999999998,0.1728516,-72.68293,-3.4756099999999996,-59.817069999999994,0.46386720000000004,-0.4033203,0.7167969,43.414629999999995,-14.085370000000001,-44.085370000000005,0.01904297,-0.5717773,1.088867,12.987810000000001,31.82927,-39.81707
0.1512,0.1416016,-1.114258,0.2514648,-47.13415,11.70732,57.682930000000006,-0.12353519999999998,-0.9160155999999999,0.17773440000000001,-73.90244,-8.658536999999999,-63.96341999999999,0.4702148,-0.402832,0.7480469,40.36586,-4.878049,-42.13415,-0.03710938,-0.5717773,1.0703129999999998,20.12195,32.0122,-38.23171
0.1539,0.09765625,-1.111816,0.2021484,-46.95122,11.95122,57.9878,-0.1787109,-0.9091796999999998,0.2006836,-74.45121999999999,-12.2561,-66.40244,0.45214840000000006,-0.3266602,0.8125,37.19512,8.597561,-41.15854,-0.159668,-0.6220703000000001,0.9707030999999999,23.41463,31.768290000000004,-35.85366
0.1566,0.06738281,-1.1206049999999999,0.128418,-46.890240000000006,11.890239999999999,57.86586,-0.22021479999999996,-0.9086914,0.24560549999999998,-73.96342,-18.23171,-71.82927,0.4370117,-0.26318359999999996,0.8330078000000002,36.28049,11.219510000000001,-41.524390000000004,-0.2553711,-0.6977539,0.8198242,21.28049,17.439020000000003,-23.59756
0.1593,0.09375,-1.1376950000000001,0.1230469,-47.0122,11.158539999999999,56.524390000000004,-0.33203130000000003,-0.9072266,0.40380859999999996,-72.2561,-20.73171,-75.0,0.3676758,-0.1630859,0.828125,33.65854,6.707317,-40.12195,-0.31787109999999996,-0.8100586,0.9204101999999998,23.59756,7.682927,-14.87805
0.162,0.21826170000000003,-1.185547,0.16455079999999997,-46.097559999999994,9.268292,51.585370000000005,-0.3911133,-0.8925780999999999,0.5039063,-65.18293,-23.65854,-80.2439,0.3183594,-0.17236329999999997,0.7675781,31.951220000000003,1.52439,-37.86586,-0.3061523,-0.8613280999999999,0.9282226999999998,39.87805,0.3048781,0.3658537
0.1647,0.29150390000000004,-1.222168,0.2041016,-45.2439,8.902439,49.2683,-0.4785156,-0.8569336,0.6347656,-60.42683,-25.42683,-83.84147,0.31347659999999994,-0.22802729999999996,0.7402344,27.37805,-7.378049000000001,-32.37805,-0.2700195,-0.9794921999999998,0.9545898000000002,45.18293,-3.7195120000000004,4.512194999999999
0.1674,0.362793,-1.2578129999999998,0.2592773,-41.7683,8.841464,45.54878,-0.46582029999999996,-0.847168,0.640625,-51.097559999999994,-29.63415,-93.47561,0.3354492,-0.3911133,0.7416991999999999,24.63415,-8.353659,-30.36585,-0.253418,-1.0708010000000001,1.033691,51.524390000000004,-17.68293,6.890244
0.1701,0.355957,-1.2421879999999998,0.2563477,-40.426829999999995,10.36585,44.63415,-0.4628906,-0.8808594000000001,0.5717773,-45.426829999999995,-36.097559999999994,-105.4268,0.34130859999999996,-0.4663085999999999,0.7695313,19.87805,-2.987805,-29.207320000000003,-0.2006836,-1.295898,1.191406,56.7683,-30.609759999999998,5.487805000000001
0.1728,0.32568359999999996,-1.1801760000000001,0.19335940000000001,-37.62195,12.987810000000001,45.79268,-0.4042969,-0.9326171999999998,0.5219727,-42.9878,-40.79268,-112.2561,0.3652344,-0.5068359,0.8291016,18.10976,1.52439,-30.12195,-0.13085940000000001,-1.458496,1.038086,74.20732,-68.17073,-0.42682929999999997
0.1755,0.32275390000000004,-1.151367,0.1577148,-36.64634,13.841460000000001,46.524390000000004,-0.23583979999999996,-1.0620120000000002,0.49316409999999994,-36.7683,-47.86586,-127.0732,0.3701172,-0.4785156,0.8505859,15.792679999999999,3.8414639999999998,-34.5122,-0.07568359,-1.496582,0.875,81.46342,-87.43903,-4.512194999999999
0.1782,0.28662109999999996,-1.126953,0.1318359,-35.67073,13.597560000000001,46.402440000000006,-0.1572266,-1.1176760000000001,0.48779300000000003,-31.219509999999996,-52.073170000000005,-132.0732,0.3330078,-0.36962890000000004,0.8662109,15.975610000000001,-7.1341470000000005,-39.69512,0.0703125,-1.4848629999999998,0.6425781,84.08537,-112.0122,-14.5122
0.1809,0.2490234,-1.134766,0.1303711,-35.30488,15.792679999999999,47.439029999999995,-0.004882813,-1.20166,0.4140625,-23.292679999999997,-57.195119999999996,-135.6707,0.31494140000000004,-0.30712890000000004,0.871582,16.58537,-14.695120000000001,-40.85366,0.1435547,-1.440918,0.6186523,81.34147,-113.9634,-20.18293
0.1836,0.1889648,-1.192871,0.1191406,-35.426829999999995,17.439020000000003,47.926829999999995,0.1318359,-1.353516,0.3520508,-23.59756,-57.37805,-133.9024,0.32910159999999994,-0.2060547,0.8608398000000002,16.707320000000003,-27.195120000000003,-40.609759999999994,0.24804690000000001,-1.2783200000000001,0.6914063,74.87805,-94.93903,-32.2561
0.1863,0.16357420000000003,-1.2626950000000001,0.11230470000000001,-34.87805,19.26829,47.7439,0.32714840000000006,-1.88916,0.33837890000000004,-35.18293,-30.487809999999996,-113.4146,0.3500977,-0.175293,0.8491211,15.792679999999999,-31.646340000000002,-40.914629999999995,0.2519531,-1.1640629999999998,0.7392578000000001,74.2683,-59.7561,-41.7683
0.18899999999999997,0.16796879999999997,-1.302734,0.1196289,-33.71951,17.86585,47.62195,-2.086426,-3.3984379999999996,-0.37890630000000003,-84.63415,48.71951,-31.768290000000004,0.3823242,-0.1982422,0.8598633,12.5,-34.024390000000004,-39.573170000000005,0.15673829999999997,-0.9394530999999999,0.7236328000000001,78.23170999999999,-44.14634,-43.902440000000006
0.1917,0.1494141,-1.330566,0.09960938,-31.89025,16.76829,46.64634,-2.359375,-3.216797,0.4428710999999999,-177.7439,36.28049,212.43900000000002,0.3730469,-0.22119139999999998,0.8603516,10.18293,-28.719509999999996,-37.31707,0.06738281,-0.8349609,0.5571289,99.02439,-32.19512,-44.20732
0.1944,0.1704102,-1.3251950000000001,0.09814453,-31.219509999999996,17.7439,47.68293,-1.818848,-0.9780273000000002,1.6591799999999999,-127.2561,-26.341459999999998,245.2439,0.45800779999999996,-0.23876950000000002,0.7792969,3.4756099999999996,-18.71951,-36.7683,-0.1708984,-0.6601563,-0.04199219,108.3537,-34.390240000000006,-41.82927
0.1971,0.2236328,-1.309082,0.1831055,-29.57317,14.87805,46.82927,-1.333984,-0.12695309999999999,1.278809,-33.414629999999995,-87.56097,129.7561,0.4770508,-0.2700195,0.7460938,0.42682929999999997,-20.97561,-39.7561,-0.32910159999999994,-0.6293945,-0.3496094,101.7683,-41.28049,-27.2561
0.1998,0.21826170000000003,-1.2998049999999999,0.2514648,-28.658540000000002,12.56098,44.939029999999995,-0.84375,-0.41845699999999997,0.2675781,-10.91463,-84.39024,-25.42683,0.38964840000000006,-0.37255859999999996,0.7475586,-1.52439,-25.304879999999997,-39.45122,-0.6503906,-0.6972656,-0.6845703000000001,85.18293,-40.2439,-13.231710000000001
0.2025,0.1982422,-1.2060549999999999,0.34277340000000006,-25.97561,14.817070000000001,45.4878,-0.6914063,-0.659668,0.09277344,-1.9512200000000002,-79.39024,-53.65854,0.40087890000000004,-0.3969727,0.7602539,-1.463415,-21.951220000000003,-35.609759999999994,-0.7768555,-0.777832,-0.6503906,40.79268,-24.02439,24.08537
0.2052,0.1889648,-1.1567379999999998,0.3466797,-25.48781,16.64634,45.4878,-0.6508789,-0.9838867,0.5224609,-1.097561,-58.96341999999999,-36.64634,0.4399414000000001,-0.3833008,0.7734375,-3.109756,-13.170729999999999,-32.68293,-0.8925780999999999,-1.000977,-0.2382813,21.82927,-11.768289999999999,43.96342
0.2079,0.1118164,-1.102539,0.3251953,-26.09756,18.35366,44.14634,-0.7490234,-1.243652,0.8588867,-5.0,-52.37805,-8.475610000000001,0.4438477,-0.33349609999999996,0.8334961,-4.1463410000000005,-12.13415,-32.9878,-0.8945313,-1.1254879999999998,0.03564453,4.268293,3.2926830000000002,76.40244
0.2106,0.07226563,-1.100098,0.31347659999999994,-26.89025,18.90244,41.82927,-0.9536133,-1.6748049999999999,1.2036129999999998,-9.817074,-59.14634,48.04878,0.4433594,-0.3076172,0.8520508,-3.7195120000000004,-17.7439,-31.341459999999998,-0.8232421999999998,-1.3549799999999999,0.49316409999999994,5.060976,-1.2804879999999998,86.95123000000001
0.2133,0.02294922,-1.1479489999999999,0.3300781,-27.37805,16.34146,39.69512,-1.035156,-1.6699220000000001,1.115723,-8.780488,-67.0122,66.09756,0.4545898,-0.2739258,0.8178711,-2.5609759999999997,-23.41463,-29.451220000000003,-0.730957,-1.5390629999999998,0.644043,15.060979999999999,-40.06098,96.58537
0.21600000000000003,0.01660156,-1.191406,0.3657227,-26.219509999999996,11.58537,35.4878,-1.044434,-1.5512700000000001,1.0239260000000001,0.1219512,-80.06097,77.37805,0.4477539000000001,-0.28222659999999994,0.7822266,-2.6219509999999997,-33.04878,-25.0,-0.6855469,-1.602539,0.5927734,20.36585,-68.29269000000001,96.82927
0.2187,0.0234375,-1.1762700000000001,0.3730469,-25.36585,10.91463,34.20732,-0.9658203000000002,-1.310059,0.8935546999999998,6.219512,-86.03659,74.20732,0.45654300000000003,-0.3168945,0.7412109,-5.182926999999999,-31.097559999999998,-18.963420000000003,-0.6123046999999999,-1.6757810000000002,0.3623047,25.12195,-121.3415,91.34147
0.2214,0.03173828,-1.128906,0.3623047,-24.81707,10.487810000000001,31.951220000000003,-0.9023438,-1.2426760000000001,0.8671875,18.65854,-92.80488000000001,59.45121999999999,0.47998050000000003,-0.32714840000000006,0.7504883000000001,-5.8536589999999995,-26.402440000000002,-17.0122,-0.5825195,-1.6894529999999999,0.2451172,20.304879999999997,-147.1951,83.29269000000001
0.2241,0.02246094,-1.114258,0.3515625,-25.18293,10.18293,30.36585,-0.8339844000000001,-1.2114260000000001,0.8735351999999998,23.84146,-94.02439,52.9878,0.5200195,-0.3061523,0.7709961,-6.890244,-19.39024,-15.304879999999999,-0.5234375,-1.6835939999999998,0.11865230000000002,14.63415,-148.6585,80.30488000000001
0.2268,0.02783203,-1.099121,0.3432617,-25.48781,8.902439,27.68293,-0.8120116999999999,-1.21875,0.9072266,30.731709999999996,-95.42683000000001,50.06098,0.5185547,-0.3027344,0.7783203000000001,-7.926829,-19.207320000000003,-14.329270000000001,-0.4946289000000001,-1.672363,0.1225586,3.04878,-137.439,78.17073
0.2295,0.04345703,-1.098633,0.3544922,-25.548779999999997,6.829267999999999,25.91463,-0.7817383000000001,-1.2338870000000002,0.9736328000000002,35.73171,-97.43903,57.317069999999994,0.49316409999999994,-0.33056640000000004,0.7700195,-9.207317,-20.2439,-9.634147,-0.4204102,-1.628418,0.22412110000000002,-1.52439,-130.2439,79.08537
0.2322,0.09570313,-1.075684,0.41503909999999994,-24.87805,2.4390240000000003,22.195120000000003,-0.762207,-1.223633,1.003906,38.536590000000004,-97.92683000000001,62.07317,0.4838867,-0.3657227,0.7514648,-10.12195,-19.08537,-6.707317,-0.37744140000000004,-1.5981450000000001,0.2910156,-7.012194999999999,-123.6585,83.96342
0.2349,0.1225586,-1.046875,0.4379883,-24.695120000000003,1.646341,20.85366,-0.7231445,-1.175293,1.010742,44.32927,-97.98781,67.2561,0.47949220000000004,-0.4472656,0.7197266,-12.62195,-12.7439,-0.9146341999999998,-0.29003909999999994,-1.533203,0.3842773,-8.719512,-125.061,87.5
0.2376,0.1191406,-0.9824219000000001,0.4238281,-24.5122,2.865854,19.7561,-0.6953125,-1.153809,1.004883,47.073170000000005,-97.86585,67.37805,0.4868164000000001,-0.4667969,0.734375,-13.292679999999999,-8.780488,0.5487805,-0.24267579999999997,-1.503906,0.4018555,-10.12195,-133.0488,95.42683000000001
0.2403,0.08789063,-0.9609375,0.3808594,-24.695120000000003,4.512194999999999,19.26829,-0.6586914,-1.135254,0.996582,52.9878,-97.2561,65.30488000000001,0.4980469,-0.40869140000000004,0.7910156,-10.853660000000001,-4.756098000000001,2.134146,-0.144043,-1.4487299999999999,0.394043,-10.487810000000001,-135.4878,99.93903
0.243,-0.008300781,-0.9716796999999998,0.26660159999999994,-26.280490000000004,5.8536589999999995,18.536579999999997,-0.6459961,-1.1435549999999999,0.987793,55.06098000000001,-96.28049,64.39024,0.4868164000000001,-0.2685547,0.8349609,-8.841464,-6.036585,2.4390240000000003,-0.09326172,-1.431641,0.3769531,-12.31707,-131.5854,107.0122
0.2457,-0.04101563,-1.001953,0.22705079999999997,-27.5,1.2804879999999998,15.670729999999999,-0.6303711,-1.185059,0.9960938,58.536590000000004,-93.41463,64.5122,0.47949220000000004,-0.20947270000000004,0.8271484,-6.158537,-12.92683,4.451219999999999,0.006347656,-1.404297,0.3452148,-13.475610000000001,-123.9024,109.3902
0.2484,-0.01708984,-1.080078,0.21630860000000002,-27.37805,-1.585366,13.963420000000001,-0.6235352,-1.2338870000000002,1.008789,60.91463,-91.95123000000001,65.60976,0.45800779999999996,-0.19335940000000001,0.7661133000000001,-6.707317,-15.975610000000001,6.097561,0.07617188,-1.3862299999999999,0.315918,-16.52439,-101.3415,111.7073
0.2511,0.08984375,-1.104004,0.2563477,-26.15854,-6.402439,11.097560000000001,-0.6118164,-1.256348,1.014648,65.60976,-87.7439,67.92683000000001,0.45605470000000004,-0.24072270000000004,0.7280273,-11.402439999999999,-14.268289999999999,9.756098,0.09619141,-1.381348,0.3105469,-18.47561,-88.90244,111.6463
0.2538,0.1459961,-1.082031,0.2768555,-25.12195,-6.707317,10.0,-0.5917969,-1.28125,1.01709,67.62196,-85.48781,69.32927,0.46972659999999994,-0.3886719,0.7045898,-14.329270000000001,-9.756098,11.219510000000001,0.1098633,-1.3706049999999999,0.30078130000000003,-23.65854,-67.92683000000001,110.3659
0.2565,0.20117190000000001,-1.0151370000000002,0.27880859999999996,-24.7561,-4.268293,9.634147,-0.5791016,-1.286133,1.020508,71.7683,-81.89024,71.28049,0.46435550000000003,-0.44921880000000003,0.7197266,-18.23171,1.097561,11.70732,0.10644529999999999,-1.3598629999999998,0.296875,-26.524390000000004,-60.36586,109.2683
0.2592,0.20947270000000004,-0.9853516,0.2587891,-24.87805,-2.926829,9.756098,-0.5429688,-1.2651370000000002,1.021484,73.96342,-79.93903,72.07316999999999,0.4536133,-0.4926758,0.7773438,-17.0122,8.475610000000001,11.82927,0.10791019999999998,-1.3432620000000002,0.28515630000000003,-32.37805,-50.73171,107.9268
0.2619,0.1811523,-0.9726563,0.2080078,-25.2439,-1.402439,9.878049,-0.5219727,-1.256836,1.022461,78.23170999999999,-75.48781,73.35365999999999,0.4360352,-0.46484380000000003,0.8007813,-15.609760000000001,9.146341,12.13415,0.10546880000000002,-1.329102,0.2783203,-38.84146,-44.5122,106.4024
0.2646,0.1591797,-0.980957,0.1884766,-25.548779999999997,-2.012195,9.695122,-0.48095699999999997,-1.23291,1.028809,81.95121999999999,-69.20732,75.18293,0.402832,-0.3686523,0.8032227,-13.719510000000001,6.52439,12.13415,0.105957,-1.298828,0.2524414,-42.37805,-41.28049,106.1585
0.2673,0.1357422,-1.006348,0.1728516,-25.42683,-3.8414639999999998,9.756098,-0.4609375,-1.2270510000000001,1.027344,83.59756,-65.42683000000001,76.21951,0.38671880000000003,-0.32128909999999994,0.7915039,-13.475610000000001,3.9634150000000004,12.86585,0.1015625,-1.282715,0.24267579999999997,-51.036590000000004,-34.024390000000004,103.5976
0.27,0.1337891,-1.0078129999999998,0.17138670000000003,-25.12195,-4.1463410000000005,10.0,-0.4282227,-1.217773,1.0341799999999999,87.2561,-57.56098000000001,78.84147,0.3720703,-0.28515630000000003,0.7719727,-14.207320000000001,-2.134146,12.19512,0.10302730000000002,-1.259766,0.24951170000000003,-55.54878000000001,-30.36585,101.9512
0.2727,0.1328125,-0.9975586,0.1518555,-24.207320000000003,-3.3536589999999995,10.12195,-0.4160156,-1.2158200000000001,1.041504,88.84147,-52.92683,79.81708,0.3779297,-0.29296880000000003,0.7749023,-14.268289999999999,-4.329268,11.58537,0.11083980000000002,-1.2529299999999999,0.2583008,-63.78049,-23.71951,98.10976
0.2754,0.1352539,-0.9921875,0.13671879999999997,-24.08537,-1.7682930000000001,10.487810000000001,-0.3901367,-1.225586,1.0473629999999998,91.64635,-43.65854,82.07316999999999,0.3955078,-0.3173828,0.7763671999999999,-13.841460000000001,-8.170732000000001,10.731710000000001,0.1289063,-1.246094,0.28662109999999996,-68.17073,-21.15854,96.21951
0.2781,0.14648440000000001,-0.9814453000000002,0.11572269999999998,-23.84146,-1.2804879999999998,10.42683,-0.3579102,-1.230957,1.0498049999999999,92.98781,-39.20732,82.86585,0.3999023,-0.32910159999999994,0.769043,-13.597560000000001,-8.780488,9.939025,0.1396484,-1.245117,0.3012695,-75.97561,-17.68293,92.2561
0.2808,0.1655273,-0.9643555,0.12011720000000001,-23.963420000000003,-1.402439,10.609760000000001,-0.3486328,-1.230469,1.056152,96.40244,-29.93903,84.69511999999999,0.39941409999999994,-0.34375,0.7490234,-14.390239999999999,-8.475610000000001,9.390244000000001,0.1767578,-1.2416989999999999,0.32421880000000003,-79.81708,-16.52439,90.48781
0.2835,0.1733398,-0.9506836,0.1328125,-23.59756,-1.52439,10.731710000000001,-0.3144531,-1.23291,1.0737299999999999,98.23170999999999,-25.12195,85.85365999999999,0.4033203,-0.35546880000000003,0.7412109,-14.5122,-7.5,9.085366,0.21044920000000003,-1.243652,0.315918,-86.89024,-13.536589999999999,85.79269000000001
0.2862,0.184082,-0.9145508,0.1547852,-23.35366,-0.6707316999999999,11.890239999999999,-0.2998047,-1.239746,1.0751950000000001,101.2195,-15.0,87.86585,0.4082031,-0.3574219,0.7436523,-15.12195,-4.573171,8.04878,0.22998049999999998,-1.2416989999999999,0.300293,-90.60976,-11.95122,82.80488000000001
0.2889,0.1787109,-0.8974609,0.15673829999999997,-22.92683,0.5487805,12.2561,-0.2651367,-1.2456049999999999,1.063965,102.9878,-9.756098,89.02439,0.4018555,-0.36035159999999994,0.7558594,-14.87805,-3.4146339999999995,7.560975999999999,0.262207,-1.2216799999999999,0.2612305,-98.59756,-5.9146339999999995,76.7683
0.2916,0.16455079999999997,-0.902832,0.1484375,-23.35366,2.195122,13.353660000000001,-0.2504883,-1.2470700000000001,1.0546879999999998,105.1829,0.9756098,91.89024,0.3969727,-0.3544922,0.7617188,-14.63415,-2.987805,7.1341470000000005,0.27734380000000003,-1.2109379999999998,0.2524414,-103.4756,-1.463415,73.23170999999999
0.2943,0.16015629999999997,-0.9111328000000002,0.1430664,-23.35366,2.926829,13.597560000000001,-0.2275391,-1.256348,1.037598,107.0732,11.097560000000001,95.2439,0.38818359999999996,-0.3481445,0.7480469,-14.5122,-3.3536589999999995,7.317073,0.2890625,-1.186035,0.2626953,-114.2073,9.024389999999999,65.54878000000001
0.297,0.1650391,-0.9165039,0.14648440000000001,-22.62195,2.987805,14.268289999999999,-0.2177734,-1.256348,1.021484,107.6829,15.731710000000001,96.58537,0.37890630000000003,-0.34912109999999996,0.7368164,-14.5122,-4.329268,7.378049000000001,0.2910156,-1.176758,0.29785159999999994,-124.8171,20.91463,58.65854
0.2997,0.18017579999999997,-0.9174805,0.1513672,-22.195120000000003,2.926829,14.329270000000001,-0.20654299999999998,-1.2426760000000001,0.9887695,109.3293,24.93903,98.84147,0.378418,-0.3608398,0.7402344,-14.268289999999999,-4.02439,6.52439,0.28662109999999996,-1.169922,0.3955078,-129.6951,26.82927,55.182930000000006
0.3024,0.18164059999999999,-0.9008789,0.1547852,-21.52439,4.02439,15.548779999999999,-0.20117190000000001,-1.2348629999999998,0.9731445,110.1829,29.32927,99.5122,0.3828125,-0.36816409999999994,0.7475586,-14.146339999999999,-3.7804879999999996,5.792683,0.2875977,-1.163086,0.4516602,-137.7439,36.402440000000006,49.32927
0.3051,0.1821289,-0.8989258,0.1499023,-21.52439,4.573171,16.15854,-0.18017579999999997,-1.219727,0.9360351999999998,110.9146,37.7439,100.2439,0.38525390000000004,-0.38183590000000006,0.762207,-13.292679999999999,-4.451219999999999,4.329268,0.2734375,-1.154297,0.543457,-140.2439,40.0,45.85366
0.3078,0.18164059999999999,-0.9106445,0.14257809999999999,-21.28049,5.548780000000001,16.82927,-0.16210940000000001,-1.209961,0.8950195,111.4024,41.524390000000004,100.6707,0.3847656,-0.38037109999999996,0.7646484,-13.04878,-4.817073000000001,3.5975610000000002,0.2607422,-1.150879,0.5810546999999999,-144.3902,45.609759999999994,39.5122
0.3105,0.17773440000000001,-0.9165039,0.14648440000000001,-20.60976,5.609756,17.86585,-0.15429690000000001,-1.209473,0.8725586,111.7683,49.024390000000004,101.2195,0.37597659999999994,-0.3813477,0.7548828000000001,-12.56098,-6.036585,3.109756,0.2275391,-1.151367,0.6259766,-146.4634,48.597559999999994,36.70732
0.3132,0.1689453,-0.921875,0.1630859,-20.12195,5.731708,18.35366,-0.1416016,-1.199219,0.8417969000000001,111.5854,52.56098000000001,101.8293,0.3745117,-0.378418,0.7475586,-12.2561,-6.463415,2.682927,0.2060547,-1.150391,0.6396484,-149.8781,53.71951,30.67073
0.3159,0.14648440000000001,-0.9243164,0.1689453,-19.451220000000003,6.158537,18.90244,-0.13867190000000001,-1.190918,0.8222655999999999,111.7683,58.902440000000006,102.3781,0.3798828,-0.36181640000000004,0.7470703000000001,-11.70732,-6.219512,1.7682930000000001,0.1640625,-1.144531,0.6723633000000001,-151.4024,56.28049,27.62195
0.3186,0.13476559999999999,-0.921875,0.1689453,-19.08537,6.768292999999999,19.14634,-0.1293945,-1.185059,0.7958984,111.5244,61.890240000000006,102.439,0.38964840000000006,-0.3520508,0.7509766,-11.524389999999999,-6.402439,1.2804879999999998,0.1396484,-1.139648,0.6811523,-154.2073,60.792680000000004,22.37805
0.3213,0.1293945,-0.9282226999999998,0.1630859,-18.47561,6.646342,19.7561,-0.1259766,-1.178711,0.7880859,111.7683,67.98781,102.9878,0.39746090000000006,-0.3417969,0.7529296999999999,-10.54878,-7.926829,-0.2439024,0.09179688,-1.131348,0.6831055,-155.6098,62.13415,19.63415
0.324,0.1342773,-0.9316405999999999,0.168457,-18.41463,6.646342,19.7561,-0.1113281,-1.1791989999999999,0.7670898,111.5244,73.23170999999999,103.7195,0.3964844,-0.347168,0.7446289,-10.853660000000001,-8.536586,-0.4878049,0.04541016,-1.10791,0.6806641,-158.5976,62.92683,14.63415
0.3267,0.152832,-0.9360351999999998,0.1850586,-17.5,5.670732,19.939020000000003,-0.10791019999999998,-1.1762700000000001,0.7568359,111.7683,75.67073,104.3902,0.39746090000000006,-0.3691406,0.7451171999999999,-11.341460000000001,-7.865854,-0.1219512,0.02734375,-1.091797,0.6777344,-160.2439,62.07317,12.62195
0.3294,0.1538086,-0.9365234,0.1899414,-17.195120000000003,5.487805000000001,19.87805,-0.1010742,-1.166504,0.7397461,111.7073,79.81708,105.6707,0.39746090000000006,-0.38037109999999996,0.7368164,-11.46342,-5.97561,0.06097561,-0.006347656,-1.0654299999999999,0.6845703000000001,-164.1463,59.14634,8.536586
0.3321,0.12207029999999999,-0.9448242,0.1923828,-17.13415,5.731708,20.2439,-0.09082031,-1.161133,0.730957,112.1951,82.0122,106.0976,0.39941409999999994,-0.3764648,0.7412109,-11.46342,-1.585366,-0.6707316999999999,-0.01806641,-1.0512700000000001,0.6889648,-167.5,54.87805,4.817073000000001
0.3348,0.105957,-0.9501953000000002,0.19140629999999997,-16.951220000000003,5.9146339999999995,20.0,-0.07373047,-1.1376950000000001,0.7231445,112.3781,85.67073,107.3781,0.4145508,-0.34765630000000003,0.7573241999999999,-10.975610000000001,-0.9756098,-1.097561,-0.03613281,-1.0234379999999998,0.7177734,-168.9634,52.31707,3.04878
0.3375,0.08935547,-0.9658203000000002,0.1865234,-16.15854,5.426829,20.060979999999997,-0.05078125,-1.115723,0.703125,112.5,86.95123000000001,107.3781,0.4047852,-0.33203130000000003,0.7597656,-9.817074,-3.231707,-2.012195,-0.04394531,-1.011719,0.7368164,-171.8293,47.62195,-0.18292679999999997
0.3402,0.08984375,-0.9716796999999998,0.18554690000000001,-15.853660000000001,3.7804879999999996,19.32927,-0.04345703,-1.10791,0.6894531,112.0732,90.0,107.8049,0.3935547,-0.3286133,0.7558594,-9.695122,-7.012194999999999,-1.036585,-0.04638672,-0.9912109,0.7880859,-172.8049,45.609759999999994,-1.2804879999999998
0.3429,0.10839839999999999,-0.9741211,0.199707,-15.609760000000001,3.2926830000000002,19.08537,-0.03320313,-1.0859379999999998,0.6645508000000001,111.7073,91.46342,107.9878,0.3935547,-0.3354492,0.7436523,-9.634147,-7.5,-0.5487805,-0.04492188,-0.9936523000000002,0.8203125,-173.3537,42.439029999999995,-3.231707
0.3456,0.1035156,-0.9506836,0.20263670000000003,-15.12195,2.865854,18.41463,-0.02636719,-1.074707,0.6567383000000001,110.7927,93.84147,107.439,0.40625,-0.3515625,0.7294921999999999,-10.18293,-5.8536589999999995,-0.2439024,-0.03369141,-0.9882813,0.8725586,-173.1098,40.975609999999996,-4.0853660000000005
0.3483,0.09130859,-0.9394530999999999,0.1977539,-15.182929999999999,2.926829,18.292679999999997,-0.008300781,-1.053711,0.640625,110.0,95.30488000000001,106.9512,0.4155273,-0.35400390000000004,0.7421875,-10.54878,-4.451219999999999,-0.4878049,-0.02636719,-0.9912109,0.8950195,-171.8902,38.71951,-5.670732
0.35100000000000003,0.07568359,-0.9375,0.1860352,-15.060979999999999,3.3536589999999995,18.23171,-0.00390625,-1.04834,0.6318359,108.9634,96.7683,105.9146,0.43066409999999994,-0.34765630000000003,0.7563477,-9.573171,-3.04878,-1.3414629999999998,-0.01367188,-0.9941405999999999,0.9072266,-170.7317,38.04878,-6.951219999999999
0.3537,0.07568359,-0.9462891,0.1904297,-15.060979999999999,2.987805,18.048779999999997,0.01708984,-1.044922,0.6157227,108.2927,98.78049,104.8781,0.42626949999999997,-0.34472659999999994,0.7509766,-9.573171,-4.0853660000000005,-1.463415,-0.009765625,-0.9907226999999998,0.8999023000000002,-168.7195,36.524390000000004,-9.939025
0.3564,0.09667969,-0.9501953000000002,0.2041016,-15.0,1.52439,17.68293,0.02832031,-1.047852,0.6040039,107.9268,99.69511999999999,103.7805,0.4160156,-0.3466797,0.7460938,-9.207317,-5.9146339999999995,-0.18292679999999997,0.001953125,-0.9741211,0.862793,-168.2317,36.34146,-11.82927
0.3591,0.1010742,-0.9472655999999999,0.20947270000000004,-14.939020000000001,1.097561,17.68293,0.04394531,-1.056152,0.5722656,107.439,100.3659,102.6829,0.41113279999999996,-0.347168,0.746582,-9.146341,-5.121951,0.7317073000000001,0.008789063,-0.9448242,0.8061523,-167.5,37.56098,-16.15854
0.3618,0.10302730000000002,-0.9467773000000002,0.203125,-14.695120000000001,1.646341,17.62195,0.04541016,-1.0620120000000002,0.5605469,107.62200000000001,101.0366,102.1951,0.4135742,-0.3520508,0.734375,-10.2439,-2.4390240000000003,2.134146,0.002441406,-0.9204101999999998,0.7802734,-167.6219,38.902440000000006,-17.92683
0.3645,0.10302730000000002,-0.9511719000000001,0.1987305,-15.060979999999999,1.7682930000000001,17.2561,0.04931641,-1.052734,0.5351563,107.8659,101.8902,101.9512,0.41845699999999997,-0.355957,0.7402344,-10.609760000000001,-2.317073,2.012195,-0.004394531,-0.855957,0.7392578000000001,-168.8415,44.14634,-21.40244
0.3672,0.1020508,-0.9604492,0.199707,-14.695120000000001,1.646341,17.31707,0.05322266,-1.047852,0.527832,107.6829,102.1951,102.0122,0.40722659999999994,-0.3671875,0.7661133000000001,-10.30488,-5.9146339999999995,2.012195,-0.01416016,-0.8217773000000002,0.722168,-170.0,46.82927,-22.07317
0.3699,0.10449220000000001,-0.9604492,0.1967773,-14.390239999999999,1.3414629999999998,17.0122,0.06640625,-1.028809,0.5117188,108.4756,102.7439,102.1341,0.3891602,-0.37744140000000004,0.7827148,-9.45122,-8.780488,2.256098,-0.05078125,-0.75,0.7192383000000001,-172.6829,52.56098000000001,-22.07317
0.3726,0.09912109,-0.9677734,0.1831055,-14.939020000000001,1.7073169999999998,17.07317,0.08496094,-1.0112299999999999,0.4868164000000001,108.4146,102.6829,102.2561,0.3886719,-0.3754883,0.7832031,-8.475610000000001,-13.475610000000001,3.8414639999999998,-0.06787109,-0.7163086,0.7270508000000001,-174.3902,58.84146,-19.39024
0.3753,0.09228516,-0.9731445,0.1674805,-15.182929999999999,2.317073,17.195120000000003,0.09326172,-1.000977,0.4750977,108.3537,102.3171,102.8049,0.3950195,-0.3417969,0.7714844,-7.926829,-14.817070000000001,4.1463410000000005,-0.09960938,-0.6523438,0.7460938,-174.8171,62.37805,-17.86585
0.37799999999999995,0.08251953,-0.9926758,0.1533203,-15.304879999999999,2.073171,17.13415,0.11230470000000001,-0.9794921999999998,0.4428710999999999,108.7195,102.1341,103.2317,0.3969727,-0.32421880000000003,0.7636719,-6.5853660000000005,-19.08537,2.682927,-0.11572269999999998,-0.6274414,0.7612305,-175.4878,68.29269000000001,-14.573170000000001
0.3807,0.09375,-0.9970703000000002,0.175293,-14.939020000000001,1.2804879999999998,16.707320000000003,0.11865230000000002,-0.96875,0.4282227,108.8415,101.2805,103.9024,0.39453130000000003,-0.3168945,0.7548828000000001,-6.097561,-25.0,2.195122,-0.1484375,-0.5961914,0.8012695,-175.9146,70.18293,-13.109760000000001
0.3834,0.1010742,-0.9892578000000002,0.19140629999999997,-14.268289999999999,0.7317073000000001,16.951220000000003,0.1298828,-0.9355469000000001,0.40087890000000004,109.0244,100.6707,104.1463,0.3969727,-0.32568359999999996,0.7548828000000001,-5.609756,-27.07317,2.5,-0.1708984,-0.5795898,0.8198242,-175.3049,71.28049,-10.91463
0.3861,0.1049805,-0.9711914,0.203125,-14.207320000000001,0.7926829000000001,16.951220000000003,0.1391602,-0.9213867,0.3813477,108.5366,99.08537,103.4756,0.4233398,-0.355957,0.7641602,-5.8536589999999995,-27.5,3.170732,-0.2006836,-0.5673828000000001,0.8432617,-174.5732,70.18293,-9.878049
0.3888,0.09423828,-0.96875,0.1982422,-14.451220000000001,1.1585370000000002,17.13415,0.15429690000000001,-0.8950195,0.3393555,107.6829,97.80488000000001,102.8659,0.4355469,-0.36816409999999994,0.7700195,-6.219512,-26.03659,3.2926830000000002,-0.21630860000000002,-0.5668945,0.8422851999999998,-173.4146,65.91463,-7.987805000000001
0.3915,0.07373047,-0.9824219000000001,0.1772461,-15.2439,2.073171,17.195120000000003,0.16455079999999997,-0.8833008,0.3198242,107.1951,96.95123000000001,102.1341,0.45410159999999994,-0.36035159999999994,0.765625,-6.707317,-22.560979999999997,3.7804879999999996,-0.2265625,-0.5629883000000001,0.8232421999999998,-173.1707,62.86586,-6.890244
0.3942,0.06396484,-0.9941405999999999,0.1733398,-15.2439,1.7682930000000001,17.5,0.184082,-0.8598633,0.28369140000000004,105.9756,95.2439,100.9146,0.45703130000000003,-0.3466797,0.7626953000000001,-6.402439,-22.07317,3.7804879999999996,-0.2158203,-0.5527344,0.7924805,-173.4146,55.91463,-5.609756
0.3969,0.07373047,-1.006836,0.1865234,-15.12195,1.2195120000000002,16.82927,0.1953125,-0.8461914,0.27246090000000006,105.3659,94.08537,100.4878,0.453125,-0.331543,0.75,-6.280488,-22.195120000000003,4.0853660000000005,-0.20263670000000003,-0.5463866999999999,0.7856445,-174.2073,52.31707,-5.365854
0.3996,0.08544922,-1.003418,0.18945309999999999,-14.5122,0.42682929999999997,16.64634,0.22314450000000002,-0.8222655999999999,0.253418,103.7195,92.62196,99.45123000000001,0.4453125,-0.33203130000000003,0.7412109,-6.829267999999999,-21.52439,4.756098000000001,-0.1728516,-0.5268555,0.8027344,-175.6098,44.20732,-5.0
0.4023,0.10839839999999999,-0.9833984,0.1889648,-14.451220000000001,0.06097561,16.463420000000003,0.253418,-0.8017578000000001,0.22509770000000004,102.6829,91.95123000000001,98.96342,0.43652340000000006,-0.34912109999999996,0.7392578000000001,-8.719512,-15.975610000000001,6.829267999999999,-0.1508789,-0.5161133,0.8237305,-175.6707,40.06098,-5.3048779999999995
0.405,0.1113281,-0.972168,0.18359379999999997,-14.87805,0.3658537,17.0122,0.26464840000000006,-0.793457,0.20361329999999997,101.1585,89.69511999999999,98.04878000000001,0.43847659999999994,-0.36035159999999994,0.7460938,-9.512196000000001,-12.07317,7.1341470000000005,-0.1176758,-0.48535159999999994,0.8691405999999999,-174.6342,31.219509999999996,-5.792683
0.4077,0.08154297,-0.9619141,0.17138670000000003,-15.182929999999999,0.9146341999999998,16.951220000000003,0.2841797,-0.7651366999999999,0.1772461,100.061,89.20732,97.2561,0.4399414000000001,-0.3657227,0.7641602,-10.54878,-7.1951220000000005,6.5853660000000005,-0.10058589999999999,-0.46435550000000003,0.8916016,-171.8902,24.26829,-5.9146339999999995
0.4104,0.04980469,-0.9912109,0.16601559999999999,-16.09756,1.2195120000000002,17.13415,0.2895508,-0.7475586,0.1577148,97.92683000000001,87.56097,95.79269000000001,0.4291992,-0.3374023,0.7734375,-10.06098,-7.560975999999999,6.402439,-0.06396484,-0.42480470000000004,0.8969726999999998,-170.1829,21.34146,-6.036585
0.4131,0.05859375,-1.002441,0.17138670000000003,-16.09756,0.5487805,16.76829,0.3061523,-0.715332,0.1196289,96.52439,86.64635,94.39024,0.42480470000000004,-0.324707,0.769043,-8.963415,-12.987810000000001,6.402439,-0.04199219,-0.4057617,0.8881836,-167.3171,17.195120000000003,-6.52439
0.4158,0.09863281,-1.003418,0.1977539,-15.2439,-1.3414629999999998,15.487810000000001,0.31494140000000004,-0.6948241999999999,0.1000977,93.47561,85.06097,91.89024,0.4145508,-0.3481445,0.7358398,-7.8048779999999995,-16.89024,6.768292999999999,0.0,-0.3691406,0.8725586,-165.6098,15.853660000000001,-6.402439
0.4185,0.140625,-0.9863280999999999,0.20898440000000001,-15.731710000000001,-1.8902439999999998,15.487810000000001,0.3325195,-0.6655273,0.07177734,89.87805,83.71951,88.71951,0.4121094,-0.3764648,0.7280273,-7.987805000000001,-20.97561,8.780488,0.02001953,-0.3500977,0.8623046999999998,-163.2317,14.207320000000001,-7.439024000000001
0.4212,0.1586914,-0.9467773000000002,0.23974610000000002,-15.2439,-1.7682930000000001,14.87805,0.34472659999999994,-0.6538086,0.05517578,88.17073,82.7439,87.31708,0.4160156,-0.4355469,0.7197266,-8.902439,-19.26829,9.329267999999999,0.05664063,-0.3144531,0.8452148000000002,-162.0732,13.963420000000001,-7.8048779999999995
0.4239,0.1381836,-0.9316405999999999,0.2275391,-15.670729999999999,-0.5487805,15.182929999999999,0.3637695,-0.6376953000000001,0.03710938,84.39024,81.52439,84.39024,0.4355469,-0.4516602,0.7260741999999999,-10.06098,-12.07317,10.12195,0.0703125,-0.296875,0.8374023000000002,-159.8171,13.902439999999999,-9.085366
0.4266,0.08935547,-0.9477539,0.1943359,-17.68293,1.036585,15.609760000000001,0.375,-0.6323241999999999,0.02587891,82.2561,81.15854,83.17073,0.42871090000000006,-0.453125,0.7436523,-10.42683,-8.963415,10.42683,0.1040039,-0.2651367,0.8203125,-158.4756,13.963420000000001,-10.30488
0.4293,0.08496094,-0.9707030999999999,0.18164059999999999,-17.9878,0.7317073000000001,15.304879999999999,0.3984375,-0.6230469,0.008300781,79.02439,80.30488000000001,81.03659,0.44433590000000006,-0.4428710999999999,0.7568359,-10.18293,-9.878049,11.036589999999999,0.1147461,-0.24853520000000004,0.8198242,-156.3415,13.780489999999999,-12.86585
0.43200000000000005,0.1171875,-1.0073239999999999,0.199707,-17.804879999999997,-1.3414629999999998,14.085370000000001,0.4067383,-0.6176758000000001,-0.01464844,77.19511999999999,79.87805,80.18293,0.4526367,-0.42578130000000003,0.734375,-9.207317,-16.82927,10.67073,0.1298828,-0.20654299999999998,0.8139648,-155.0,13.597560000000001,-14.390239999999999
0.4347,0.13867190000000001,-1.006348,0.21630860000000002,-17.07317,-2.865854,13.475610000000001,0.4047852,-0.6113281,-0.02832031,73.96342,78.90244,78.47561,0.4296875,-0.42285159999999994,0.7387695,-9.207317,-18.536579999999997,11.768289999999999,0.1342773,-0.1689453,0.7993164,-152.1342,12.19512,-17.31707
0.4374,0.1318359,-0.9785155999999999,0.20263670000000003,-16.40244,-2.5,13.963420000000001,0.40380859999999996,-0.5966796999999999,-0.05175781,72.19511999999999,78.59756,77.7439,0.4277344,-0.3999023,0.734375,-8.963415,-12.86585,14.268289999999999,0.13476559999999999,-0.1455078,0.7929688,-150.6098,11.524389999999999,-18.84146
0.4401,0.11230470000000001,-0.9682617,0.1806641,-17.68293,0.3658537,14.451220000000001,0.402832,-0.5917969,-0.06494141,68.71951,78.10976,75.60976,0.4296875,-0.3847656,0.7373046999999999,-9.939025,-7.8048779999999995,14.268289999999999,0.128418,-0.109375,0.7827148,-147.7439,9.939025,-20.42683
0.4428,0.04931641,-0.9819336,0.12353519999999998,-18.17073,0.6707316999999999,14.817070000000001,0.40380859999999996,-0.5761719,-0.08935547,66.95121999999999,77.5,75.0,0.43066409999999994,-0.32910159999999994,0.7714844,-12.2561,-1.8292680000000001,12.68293,0.125,-0.09277344,0.7792969,-145.061,8.658536999999999,-21.40244
0.4455,0.04003906,-1.040039,0.1049805,-18.292679999999997,-0.3048781,14.63415,0.40966800000000003,-0.5712891,-0.1010742,64.39024,76.64635,73.04878000000001,0.4370117,-0.30224609999999996,0.7836914,-12.0122,-2.5,11.70732,0.1289063,-0.06445313,0.7670898,-143.4756,8.170732000000001,-21.64634
0.4482,0.06005859,-1.057129,0.11328130000000002,-17.86585,-1.52439,13.963420000000001,0.41796880000000003,-0.5595703000000001,-0.13330079999999997,61.7683,75.18293,70.97561,0.4077148,-0.284668,0.7900391,-11.097560000000001,-10.12195,10.731710000000001,0.1293945,-0.0546875,0.7578125,-140.7927,7.7439029999999995,-22.2561
0.4509,0.1015625,-1.041016,0.14892579999999997,-15.975610000000001,-2.987805,12.92683,0.4238281,-0.5527344,-0.14892579999999997,60.0,74.69511999999999,70.18293,0.3950195,-0.2973633,0.7558594,-10.54878,-13.170729999999999,11.46342,0.12695309999999999,-0.03271484,0.7319336,-139.6342,7.865854,-22.0122
0.4536,0.11035160000000001,-1.019531,0.1547852,-15.36585,-2.743902,12.86585,0.4301758,-0.5444336,-0.17578129999999997,57.07317,72.80488000000001,68.23170999999999,0.4047852,-0.3168945,0.746582,-10.731710000000001,-14.329270000000001,13.231710000000001,0.1298828,-0.01855469,0.7207031,-137.5,8.414635,-22.0122
0.4563,0.09863281,-0.9897461,0.14648440000000001,-15.792679999999999,-0.9756098,13.414629999999999,0.4321289000000001,-0.5429688,-0.1938477,55.4878,72.0122,67.43903,0.4389648,-0.3623047,0.7514648,-11.219510000000001,-12.43902,12.92683,0.12695309999999999,0.01269531,0.6977539,-136.6463,8.719512,-22.195120000000003
0.45899999999999996,0.09423828,-1.0,0.1337891,-15.914629999999999,-0.3048781,13.536589999999999,0.43652340000000006,-0.5322266,-0.22412110000000002,53.170730000000006,70.60976,66.15854,0.4453125,-0.37890630000000003,0.7612305,-12.31707,-7.560975999999999,11.097560000000001,0.125,0.03076172,0.6850586,-135.5488,8.841464,-22.0122
0.4617,0.08447266,-1.024902,0.11621089999999999,-16.21951,-0.3658537,13.475610000000001,0.4389648,-0.5161133,-0.2524414,51.585370000000005,69.63415,65.42683000000001,0.4379883,-0.3779297,0.7856445,-12.43902,-5.8536589999999995,9.939025,0.12695309999999999,0.06347656,0.6665039,-134.5732,8.719512,-21.951220000000003
0.4644,0.06494141,-1.0341799999999999,0.11035160000000001,-16.09756,-0.6097561,13.536589999999999,0.4355469,-0.5078125,-0.2626953,48.536590000000004,67.0122,64.02439,0.4277344,-0.36181640000000004,0.7944336,-11.95122,-3.9024389999999998,9.756098,0.1298828,0.08056641,0.6577148,-133.7805,8.414635,-21.03659
0.4671,0.04394531,-1.038086,0.10546880000000002,-15.792679999999999,-0.7317073000000001,13.536589999999999,0.4321289000000001,-0.484375,-0.2817383,46.95122,66.15854,63.35366,0.4213867,-0.30566409999999994,0.7919921999999999,-11.58537,-3.04878,10.42683,0.1279297,0.11425779999999999,0.6479491999999999,-133.6585,8.109755999999999,-20.42683
0.4698,0.03613281,-1.041504,0.1035156,-15.548779999999999,-0.6097561,13.231710000000001,0.4321289000000001,-0.4785156,-0.2890625,43.475609999999996,64.69511999999999,61.707319999999996,0.4301758,-0.27441409999999994,0.7875977,-11.82927,-3.5365849999999996,9.939025,0.1357422,0.1352539,0.659668,-133.6585,6.951219999999999,-19.26829
0.4725,0.04052734,-1.048828,0.10644529999999999,-15.426829999999999,-0.9756098,13.109760000000001,0.43261720000000004,-0.47753909999999994,-0.3066406,41.70732,63.96341999999999,60.73171,0.4375,-0.253418,0.7885741999999999,-11.46342,-6.951219999999999,7.8048779999999995,0.1376953,0.1435547,0.6723633000000001,-133.2317,6.768292999999999,-18.292679999999997
0.4752,0.07128906,-1.049316,0.1303711,-15.060979999999999,-1.585366,12.37805,0.4321289000000001,-0.4760742,-0.31005859999999996,38.597559999999994,61.58537,59.08537,0.43457029999999996,-0.2543945,0.7866211,-11.219510000000001,-8.536586,7.682927,0.1430664,0.1469727,0.7250977,-132.1342,5.365854,-16.28049
0.4779,0.07763672,-1.035156,0.1376953,-14.573170000000001,-2.073171,11.890239999999999,0.4370117,-0.4702148,-0.3232422,35.426829999999995,58.536590000000004,57.682930000000006,0.4223633,-0.2910156,0.7636719,-11.70732,-8.353659,8.231708,0.1469727,0.1416016,0.7529296999999999,-130.6098,4.390244,-15.426829999999999
0.4806,0.07470703,-0.9926758,0.1352539,-14.268289999999999,-1.8292680000000001,11.890239999999999,0.43261720000000004,-0.46777340000000006,-0.33837890000000004,33.71951,57.13415,56.95121999999999,0.42285159999999994,-0.3222656,0.7529296999999999,-12.7439,-6.036585,9.390244000000001,0.1586914,0.1298828,0.8017578000000001,-125.8537,2.317073,-13.597560000000001
0.4833,0.0703125,-0.9775391,0.1328125,-14.695120000000001,-1.585366,12.0122,0.43066409999999994,-0.44970699999999997,-0.3486328,29.87805,54.08537,55.06098000000001,0.4448242,-0.35693359999999996,0.7348633000000001,-14.390239999999999,1.097561,9.817074,0.16015629999999997,0.1171875,0.828125,-120.9146,0.3658537,-11.890239999999999
0.486,0.07763672,-0.9833984,0.1474609,-14.939020000000001,-1.3414629999999998,12.0122,0.4321289000000001,-0.4428710999999999,-0.3530273,28.41463,52.92683,53.65854,0.4604492,-0.3666992,0.7299805,-14.63415,3.5975610000000002,8.780488,0.1743164,0.07763672,0.8847655999999999,-117.7439,-0.9146341999999998,-11.036589999999999
0.4887,0.09375,-0.9897461,0.1586914,-14.5122,-1.7682930000000001,11.95122,0.4477539000000001,-0.4472656,-0.3549805,25.12195,50.67073,50.36586,0.4624023,-0.37890630000000003,0.7260741999999999,-14.085370000000001,3.9024389999999998,5.8536589999999995,0.1845703,0.0546875,0.9165039,-111.1585,-4.634146,-9.695122
0.4914,0.1274414,-0.9775391,0.1889648,-13.658539999999999,-2.195122,11.646339999999999,0.4667969,-0.47216800000000003,-0.34912109999999996,23.90244,49.81707,48.35366,0.4277344,-0.3886719,0.7226563,-13.414629999999999,3.5365849999999996,5.426829,0.21728520000000004,0.0,0.9550780999999999,-107.62200000000001,-6.341464,-9.085366
0.4941,0.1318359,-0.9550780999999999,0.199707,-13.536589999999999,-2.3780490000000003,11.768289999999999,0.4746094,-0.4829102,-0.3500977,20.91463,47.37805,43.475609999999996,0.40966800000000003,-0.3950195,0.7202148,-13.841460000000001,6.402439,7.378049000000001,0.24951170000000003,-0.02587891,0.9570313,-99.93903,-7.865854,-8.292683
0.4968,0.09863281,-0.9223633,0.19726559999999999,-14.085370000000001,-1.7073169999999998,12.5,0.4946289000000001,-0.5004883,-0.3466797,19.87805,46.15854,40.85366,0.4013672,-0.4033203,0.7231445,-14.573170000000001,9.695122,9.390244000000001,0.3105469,-0.05664063,0.9560546999999998,-96.09756,-7.865854,-8.231708
0.4995,0.06835938,-0.9213867,0.1782227,-14.573170000000001,-0.9756098,12.80488,0.5063477,-0.4995117,-0.35058590000000006,17.92683,43.96342,35.0,0.41503909999999994,-0.3979492,0.7397461,-16.28049,17.195120000000003,10.79268,0.3515625,-0.06982422,0.9614258,-88.71951,-3.5975610000000002,-8.719512
0.5022,0.02197266,-0.9667969000000001,0.1337891,-15.670729999999999,-0.42682929999999997,13.963420000000001,0.5268555,-0.47949220000000004,-0.36181640000000004,17.2561,42.926829999999995,31.402440000000002,0.4301758,-0.3657227,0.7807616999999999,-16.40244,18.90244,9.939025,0.421875,-0.08886719,1.0463870000000002,-85.60976,0.1219512,-9.390244000000001
0.5049,0.01855469,-0.9936523000000002,0.1225586,-15.975610000000001,-1.463415,14.024389999999999,0.534668,-0.45800779999999996,-0.3686523,15.304879999999999,39.390240000000006,21.76829,0.42675779999999996,-0.340332,0.7919921999999999,-14.939020000000001,15.792679999999999,7.073171,0.4936523,-0.1420898,1.243164,-77.56097,9.817074,-8.475610000000001
0.5076,0.05664063,-1.036621,0.1298828,-15.0,-2.317073,13.841460000000001,0.5410156,-0.42871090000000006,-0.3979492,13.04878,34.20732,9.085366,0.3984375,-0.3046875,0.7861328000000001,-12.68293,6.951219999999999,5.9146339999999995,0.5375977,-0.184082,1.358398,-71.52439,14.939020000000001,-7.012194999999999
0.5103,0.11230470000000001,-1.0112299999999999,0.1547852,-13.658539999999999,-3.7804879999999996,13.109760000000001,0.5463866999999999,-0.42578130000000003,-0.4194335999999999,11.46342,31.036590000000004,1.52439,0.38525390000000004,-0.3012695,0.7685546999999999,-12.31707,3.6585370000000004,6.768292999999999,0.6401366999999999,-0.2797852,1.5498049999999999,-53.35366,24.7561,-2.4390240000000003
0.513,0.1328125,-0.9882813,0.16992190000000001,-12.92683,-3.7195120000000004,12.86585,0.5458984,-0.44824220000000004,-0.48144529999999996,7.865854,24.63415,-14.939020000000001,0.38525390000000004,-0.3339844,0.7280273,-13.109760000000001,2.804878,9.390244000000001,0.7001953000000001,-0.32421880000000003,1.612793,-41.524390000000004,30.304879999999997,-0.6097561
0.5157,0.144043,-0.956543,0.1796875,-12.7439,-2.6219509999999997,13.475610000000001,0.5400391,-0.4628906,-0.5,5.731708,22.37805,-23.53659,0.3999023,-0.3701172,0.7207031,-14.207320000000001,5.121951,10.06098,0.8046875,-0.37255859999999996,1.643066,-15.609760000000001,46.7683,-0.42682929999999997
0.5184,0.1430664,-0.9560546999999998,0.1845703,-13.109760000000001,-2.012195,13.475610000000001,0.5375977,-0.4907227,-0.519043,1.9512200000000002,19.26829,-39.45122,0.43359380000000003,-0.44140630000000003,0.7319336,-16.21951,12.2561,9.268292,0.8359375,-0.37890630000000003,1.614258,10.853660000000001,70.97561,-4.634146
0.5211,0.12353519999999998,-0.9741211,0.17236329999999997,-13.963420000000001,-0.42682929999999997,14.817070000000001,0.5463866999999999,-0.5048828,-0.5332031,0.18292679999999997,17.195120000000003,-46.34146,0.4379883,-0.46875,0.7421875,-16.64634,15.2439,7.987805000000001,0.8300780999999999,-0.3310547,1.470703,22.2561,85.2439,-8.170732000000001
0.5238,0.11425779999999999,-0.9838867,0.1650391,-14.207320000000001,-0.42682929999999997,15.426829999999999,0.5571289,-0.5283203000000001,-0.5703125,-3.4146339999999995,12.43902,-57.195119999999996,0.41699220000000004,-0.4760742,0.765625,-16.21951,18.59756,6.707317,0.7929688,-0.27880859999999996,1.375,41.95122,115.1829,-17.0122
0.5265,0.08837891,-0.9804688,0.1625977,-14.146339999999999,-0.3048781,16.463420000000003,0.5615234,-0.5415039,-0.6108398,-5.426829,9.634147,-60.36586,0.4013672,-0.4550781,0.7685546999999999,-16.28049,18.536579999999997,7.1951220000000005,0.6655273,-0.13476559999999999,1.162598,49.69512,128.9634,-21.34146
0.5292,0.06738281,-0.9765625,0.15429690000000001,-14.146339999999999,-0.3048781,17.195120000000003,0.5532227,-0.5517578000000001,-0.628418,-9.390244000000001,4.1463410000000005,-63.597559999999994,0.3823242,-0.3925781,0.7685546999999999,-15.792679999999999,17.68293,9.146341,0.5791016,-0.046875,1.0668950000000001,60.06098000000001,149.8171,-28.231709999999996
0.5319,0.03320313,-0.9838867,0.1313477,-14.390239999999999,0.06097561,17.9878,0.5253906,-0.6030273,-0.6611328000000001,-11.58537,2.073171,-63.23171,0.390625,-0.32421880000000003,0.7792969,-15.36585,15.975610000000001,9.45122,0.3793945,0.1513672,0.8808594000000001,64.39024,155.6098,-30.731709999999996
0.5346,0.02929688,-0.9970703000000002,0.1206055,-14.390239999999999,0.4878049,18.048779999999997,0.4985352,-0.6416016,-0.6748046999999999,-14.573170000000001,-0.18292679999999997,-58.475609999999996,0.4047852,-0.300293,0.7929688,-13.841460000000001,9.878049,7.8048779999999995,0.27734380000000003,0.2558594,0.7871094,71.95121999999999,155.3659,-33.109759999999994
0.5373,0.05566406,-1.035156,0.10253910000000001,-14.329270000000001,0.5487805,17.62195,0.4453125,-0.6865234,-0.6904296999999999,-16.036579999999997,-0.3048781,-53.536590000000004,0.4116210999999999,-0.28662109999999996,0.7973633000000001,-12.92683,5.792683,6.341464,0.07177734,0.4946289000000001,0.5556641,74.5122,149.3902,-33.414629999999995
0.54,0.09277344,-1.032227,0.1293945,-13.658539999999999,-0.1219512,17.31707,0.421875,-0.6972656,-0.7050781,-18.536579999999997,-0.42682929999999997,-40.67073,0.402832,-0.2954102,0.7861328000000001,-11.890239999999999,-0.7926829000000001,4.329268,-0.02685547,0.6137695,0.4389648,73.10976,126.3415,-31.219509999999996
0.5427,0.09912109,-1.009277,0.14648440000000001,-12.7439,-0.2439024,17.0122,0.3823242,-0.6977539,-0.7490234,-20.304879999999997,-3.7804879999999996,-26.219509999999996,0.3857422,-0.331543,0.7485352,-12.56098,-1.52439,5.365854,-0.21533200000000002,0.8427734,0.2714844,68.84147,111.3415,-28.231709999999996
0.5454,0.08837891,-0.9614258,0.1586914,-12.31707,0.42682929999999997,17.86585,0.3730469,-0.6772461,-0.7617188,-21.64634,-5.609756,-19.02439,0.4003906,-0.362793,0.7382813,-14.5122,1.52439,8.109755999999999,-0.36328130000000003,1.0463870000000002,0.1889648,56.21951,73.96342,-19.02439
0.5481,0.07958984,-0.9545898000000002,0.15234379999999997,-12.92683,1.3414629999999998,18.17073,0.37890630000000003,-0.6245116999999999,-0.7895508000000001,-23.90244,-8.963415,-7.865854,0.42578130000000003,-0.40869140000000004,0.7519531,-16.40244,7.560975999999999,8.475610000000001,-0.4160156,1.1137700000000001,0.1860352,48.17073,51.46342,-12.80488
0.5508,0.07080078,-0.9750976999999998,0.12109380000000002,-14.390239999999999,2.804878,19.451220000000003,0.3969727,-0.6030273,-0.8056641,-25.792679999999997,-10.67073,-2.987805,0.4316406,-0.4145508,0.762207,-16.463420000000003,10.91463,8.109755999999999,-0.4316406,1.209473,0.20263670000000003,32.073170000000005,-0.5487805,0.6097561
0.5535,0.05859375,-0.9858398000000002,0.09912109,-14.63415,3.231707,19.63415,0.4394531,-0.5737305,-0.8764648000000002,-31.58537,-16.64634,4.6951220000000005,0.4140625,-0.3969727,0.7792969,-16.89024,14.7561,7.256098,-0.3886719,1.239746,0.190918,12.07317,-56.402440000000006,14.146339999999999
0.5562,0.03613281,-0.9946289,0.08496094,-14.63415,3.2926830000000002,20.4878,0.49609380000000003,-0.4838867,-0.9428711,-35.609759999999994,-22.439020000000003,7.439024000000001,0.3979492,-0.36962890000000004,0.7817383000000001,-16.89024,15.487810000000001,7.317073,-0.1918945,1.232422,0.4018555,-2.865854,-84.08537,19.451220000000003
0.5589,0.02001953,-0.9892578000000002,0.08740234,-14.5122,3.2926830000000002,20.73171,0.5898438,-0.402832,-0.9287109,-43.71951,-34.2683,7.926829,0.3613281,-0.3017578,0.7817383000000001,-17.31707,14.329270000000001,7.926829,-0.05566406,1.147461,0.7387695,-33.414629999999995,-149.6342,25.548779999999997
0.5616,-0.0009765625,-0.9819336,0.08789063,-13.597560000000001,3.170732,21.34146,0.996582,-0.2749023,-0.9013671999999998,-45.73171,-35.36586,1.585366,0.35546880000000003,-0.27587890000000004,0.793457,-17.2561,12.37805,8.109755999999999,0.27441409999999994,0.7407227,1.719238,-36.64634,-189.5732,25.0
0.5643,0.0034179690000000003,-0.9936523000000002,0.07861328,-14.146339999999999,3.04878,21.34146,1.233398,-0.2749023,-0.9594726999999998,-50.975609999999996,-26.707320000000003,-23.41463,0.3730469,-0.2470703,0.8125,-16.09756,4.878049,6.52439,0.5185547,0.48095699999999997,2.164551,4.451219999999999,-266.8903,15.731710000000001
0.5670000000000001,0.03808594,-1.0234379999999998,0.07958984,-14.817070000000001,4.0853660000000005,21.21951,1.504883,-0.3857422,-1.175781,-56.7683,-23.10976,-37.13415,0.36816409999999994,-0.2470703,0.8120116999999999,-15.36585,-0.42682929999999997,5.060976,1.186523,0.1850586,2.125,32.56098,-295.7927,4.390244
0.5697,0.05566406,-1.026367,0.09179688,-12.92683,4.573171,20.304879999999997,1.533203,-0.4516602,-1.246094,-72.86585,-24.02439,-57.07317,0.3544922,-0.28027340000000006,0.8022461,-14.573170000000001,-12.56098,4.573171,1.533203,0.07958984,1.977051,71.34147,-317.5,-29.451220000000003
0.5724,0.08056641,-0.9858398000000002,0.1040039,-12.56098,4.878049,20.060979999999997,1.498535,-0.5288086,-1.314941,-86.34147,-21.82927,-69.08537,0.3486328,-0.31152340000000006,0.7993164,-14.268289999999999,-18.10976,5.121951,2.067383,-0.1298828,1.6674799999999999,83.47561,-305.4268,-46.28049
0.5751,0.07763672,-0.9521484,0.14892579999999997,-12.80488,5.792683,21.09756,1.434082,-0.5058594,-1.422852,-95.79269000000001,-21.89024,-75.79269000000001,0.347168,-0.378418,0.7587891,-13.658539999999999,-26.58537,6.707317,2.289063,-0.08105469,1.388672,113.2317,-208.2317,-62.987809999999996
0.5778,0.08007813,-0.9150391,0.1748047,-12.62195,5.548780000000001,21.64634,0.9262695,-0.22216799999999998,-1.275879,-124.8781,-50.79268,-87.13415,0.32568359999999996,-0.4370117,0.6918945,-14.268289999999999,-29.81707,7.7439029999999995,3.019043,-0.11865230000000002,1.4262700000000001,111.9512,-119.6951,-66.34146
0.5805,0.06884766,-0.8022461,0.1376953,-12.92683,7.378049000000001,21.82927,0.5639648,-0.03808594,-0.9785155999999999,-139.0854,-58.536590000000004,-93.04878000000001,0.328125,-0.4467773,0.659668,-16.21951,-35.85366,8.780488,4.212402,-0.5644531,3.405273,121.3415,108.9634,-81.15854
0.5832,0.04052734,-0.7719727,0.12353519999999998,-15.182929999999999,8.902439,22.86585,-0.6220703000000001,-0.2729492,-0.01953125,-157.8049,-72.37805,-95.85365999999999,0.31152340000000006,-0.4375,0.6445313,-16.82927,-40.85366,7.926829,5.144531,-1.091309,5.43457,152.9268,250.4268,-97.0122
0.5859,-0.02246094,-0.8242188,0.1166992,-18.84146,10.67073,24.63415,-1.2817379999999998,-1.514648,1.470215,-146.2195,-66.15854,-91.58537,0.3183594,-0.4213867,0.6904296999999999,-14.146339999999999,-57.07317,6.52439,3.96582,-2.598145,7.885254,387.1951,335.2439,-236.3415
0.5886,-0.02880859,-0.8828125,0.07861328,-19.63415,12.31707,25.0,-1.3276370000000002,-2.146484,1.756348,-89.32927,-23.35366,-98.65854,0.36621090000000006,-0.3515625,0.8085938,-7.256098,-75.67073,4.207317,1.978027,-2.708984,5.365234,557.2561,218.4146,-307.561
0.5913,0.007324219,-1.032715,0.01171875,-21.463420000000003,16.40244,24.26829,-1.885254,-3.102539,1.687988,-72.68293,-17.68293,-107.5,0.41503909999999994,-0.31005859999999996,0.8618164,-4.207317,-87.13415,1.8292680000000001,-0.47363279999999996,-2.51709,-0.1977539,601.8293,-74.81708,-307.8049
0.594,0.03662109,-1.100586,-0.006347656,-21.28049,17.7439,23.35366,-2.396973,-3.422852,1.659668,-63.96341999999999,-32.9878,-100.0,0.49316409999999994,-0.2421875,0.8959961,0.7926829000000001,-113.8415,-6.5853660000000005,-1.213379,-2.868652,-1.6425779999999999,432.9878,-147.0732,-168.9025
0.5967,0.13867190000000001,-1.149414,0.01220703,-19.57317,19.207320000000003,20.91463,-2.919922,-3.597168,1.681641,-58.78049,-40.54878,-87.80488000000001,0.49316409999999994,-0.22802729999999996,0.8652344000000001,2.195122,-125.8537,-10.06098,-2.6728520000000002,-4.105469,-2.8125,357.561,-82.31708,-42.31707
0.5994,0.2060547,-1.129883,0.09814453,-16.52439,16.52439,17.2561,-2.698242,-3.455566,1.558594,-45.30488,-35.975609999999996,-91.70732,0.42871090000000006,-0.277832,0.762207,0.7926829000000001,-135.2439,-9.024389999999999,-3.063965,-4.696777,-2.79541,242.7439,182.3171,242.0732
0.6021,0.3251953,-1.0385739999999999,0.25,-13.963420000000001,15.975610000000001,16.463420000000003,-1.8081049999999999,-2.851074,1.095703,-46.64634,-30.792679999999997,-125.7927,0.4057617,-0.3408203,0.7011719,-2.195122,-129.8171,-4.634146,-1.4799799999999999,-5.1547849999999995,-1.293457,207.7439,308.2927,292.1951
0.6048,0.2734375,-0.9355469000000001,0.3081055,-14.268289999999999,20.36585,18.963420000000003,-1.350098,-2.385254,0.8339844000000001,-50.12195,-36.7683,-137.7439,0.4624023,-0.5375977,0.6147461,-13.902439999999999,-110.061,1.9512200000000002,-0.8085938,-5.146973,0.05957031,226.2805,395.9146,123.6585
0.6075,0.20507809999999999,-0.9111328000000002,0.32568359999999996,-16.15854,23.35366,21.58537,-0.4609375,-1.348633,0.1928711,-59.695119999999996,-50.0,-151.5244,0.5004883,-0.6523438,0.6313477,-21.40244,-103.4756,1.646341,-0.45703130000000003,-4.219238,1.85791,273.6585,337.8659,-7.1341470000000005
0.6102,0.08203125,-0.9394530999999999,0.2265625,-20.73171,25.792679999999997,26.15854,-0.04248047,-0.9394530999999999,-0.21923829999999997,-66.34146,-49.45122,-159.939,0.527832,-0.8242188,0.7602539,-28.780490000000004,-101.2195,-4.0853660000000005,-0.4145508,-3.3125,1.788574,318.6585,99.57316999999999,-211.0976
0.6129,0.04785156,-0.9619141,0.1420898,-23.90244,26.524390000000004,27.62195,0.5952148,-0.5537109,-1.018066,-83.96342,-38.78049,-177.8659,0.5307616999999999,-0.8383789,0.8139648,-28.597559999999998,-107.8659,-7.560975999999999,-0.1728516,-1.524414,0.9946289,289.6951,-17.0122,-272.1342
0.6156,0.01806641,-0.9682617,0.07373047,-28.719509999999996,26.09756,27.7439,1.015625,-0.6635741999999999,-1.396484,-90.67073,-32.2561,-183.5366,0.4985352,-0.7573241999999999,0.8232421999999998,-22.31707,-136.2805,-14.695120000000001,0.03320313,-0.8413086,0.8417969000000001,199.2073,-159.0244,-324.6342
0.6183,0.01074219,-0.9672851999999998,0.09228516,-29.268290000000004,24.39024,26.58537,1.186523,-0.8095703000000001,-1.427734,-93.41463,-28.048779999999997,-189.1463,0.44042970000000004,-0.5761719,0.7885741999999999,-18.048779999999997,-155.2439,-16.89024,0.6982421999999999,0.33056640000000004,1.099121,174.4512,-185.5488,-325.5488
0.621,0.03662109,-0.9521484,0.1420898,-28.109759999999998,20.97561,23.90244,1.236328,-1.125977,-1.3720700000000001,-90.79269000000001,-32.31707,-190.6098,0.42285159999999994,-0.48535159999999994,0.7666016,-8.780488,-188.1098,-17.62195,1.700684,1.717773,1.661621,194.2073,-202.7439,-303.4756
0.6237,0.05078125,-0.9331055,0.16796879999999997,-28.17073,20.67073,22.804879999999997,1.004883,-1.274902,-1.291992,-86.15854,-53.96341999999999,-184.8171,0.4282227,-0.3286133,0.6899414,-4.634146,-199.0854,-17.37805,2.268555,2.604004,1.8857419999999998,234.3902,-218.7805,-292.3781
0.6264,0.06787109,-0.8920898000000002,0.19921879999999997,-31.097559999999998,20.42683,21.40244,0.12695309999999999,-1.457031,-0.9350586,-83.47561,-69.14634000000001,-174.4512,0.44189449999999997,-0.28662109999999996,0.6635741999999999,-1.9512200000000002,-210.2439,-17.31707,2.15918,3.9487300000000003,1.513672,334.6342,-239.1463,-251.0976
0.6291,0.06835938,-0.8901367,0.19335940000000001,-32.68293,20.792679999999997,20.73171,-0.359375,-1.444336,-0.6518555,-77.37805,-89.45123000000001,-141.8902,0.4838867,-0.2827148,0.659668,-3.5975610000000002,-209.8781,-17.92683,1.6611330000000002,4.15332,0.7470703000000001,347.439,-118.1098,-103.8415
0.6318,0.08544922,-0.9526367,0.1845703,-37.5,21.463420000000003,21.15854,-0.9194336,-1.534668,-0.08642578,-70.12196,-80.85365999999999,-115.9146,0.5131836,-0.3139648,0.6865234,-4.02439,-207.5,-17.68293,0.8208008,3.222656,-0.20898440000000001,317.3171,-19.207320000000003,-8.475610000000001
0.6345,0.09814453,-1.0004879999999998,0.19726559999999999,-39.81707,21.76829,21.15854,-0.9350586,-1.744629,0.09423828,-65.36585,-72.5,-109.3902,0.574707,-0.4155273,0.7114258000000001,-4.573171,-203.4146,-18.292679999999997,0.5883789,2.433105,-0.4067383,236.5854,196.8293,159.939
0.6372,0.1416016,-1.060547,0.24365229999999996,-39.2683,21.89024,21.28049,-0.7910156,-2.133301,0.32421880000000003,-58.109759999999994,-69.5122,-103.8415,0.6054688,-0.4750977,0.7080078000000001,-4.512194999999999,-202.6829,-19.63415,0.38818359999999996,0.8740234,-0.1904297,195.9146,288.6585,222.1342
0.6399,0.18554690000000001,-1.036621,0.2705078,-37.56098,21.52439,20.792679999999997,-0.7060546999999999,-2.166504,0.3979492,-55.304880000000004,-75.48781,-101.4024,0.6723633000000001,-0.5942383000000001,0.6767578000000001,-3.170732,-200.8537,-23.59756,0.3417969,0.1230469,0.1118164,129.0244,416.8903,310.2439
0.6426,0.19335940000000001,-1.012207,0.2729492,-37.5,21.463420000000003,21.15854,-0.3862305,-2.008789,0.375,-54.817069999999994,-88.78049,-102.0732,0.7114258000000001,-0.6416016,0.6538086,-2.987805,-199.1463,-25.97561,0.33837890000000004,-1.5786129999999998,1.25,111.2805,445.0,336.2805
0.6453,0.18701170000000003,-0.9599609,0.22802729999999996,-39.63415,22.07317,22.92683,-0.02539063,-1.8320310000000002,0.12646480000000002,-56.7683,-93.53659,-106.2195,0.815918,-0.6889648,0.6098633000000001,-9.45122,-190.9146,-30.67073,0.2827148,-2.46875,1.86084,142.3781,376.5244,323.9634
0.648,0.15673829999999997,-0.9482421999999998,0.22705079999999997,-41.70732,22.195120000000003,24.207320000000003,0.10546880000000002,-1.759277,0.0004882813,-62.0122,-100.12200000000001,-116.1585,0.8598633,-0.7138671999999999,0.6142578000000001,-13.719510000000001,-182.3171,-33.23171,-0.08154297,-3.578125,2.048828,179.3902,282.1342,284.0854
0.6507,0.112793,-0.9526367,0.1889648,-44.939029999999995,20.91463,27.195120000000003,0.18164059999999999,-1.595215,-0.1650391,-64.87805,-104.1463,-118.4756,0.940918,-0.737793,0.6450195,-18.90244,-160.3049,-37.37805,-0.3051758,-3.600586,1.6386720000000001,222.1951,82.07316999999999,159.4512
0.6534,0.10644529999999999,-0.9604492,0.15576170000000003,-46.82927,20.2439,28.109759999999998,0.1396484,-1.516602,-0.1875,-67.62196,-112.2561,-114.0244,0.9711914,-0.7236328000000001,0.6445313,-20.12195,-151.5244,-39.87805,-0.6933594,-2.808594,0.8178711,218.8415,20.548779999999997,92.56097
0.6561,0.09179688,-0.9750976999999998,0.1625977,-51.21951,19.63415,29.207320000000003,-0.04638672,-1.4106450000000001,-0.12402339999999999,-67.5,-115.5488,-107.6829,1.0073239999999999,-0.6782227,0.621582,-26.03659,-140.6707,-45.4878,-0.8388671999999998,-1.568848,0.5649414,196.1585,-22.804879999999997,-6.5853660000000005
0.6588,0.08447266,-0.9790039,0.16601559999999999,-52.13415,18.90244,29.81707,-0.1289063,-1.395996,-0.05810547,-65.18293,-118.6585,-90.2439,1.03125,-0.6298828000000001,0.6162109,-28.41463,-135.6707,-48.65854,-0.7670898,-0.9785155999999999,0.5756836,187.5,-31.951220000000003,-33.29268
0.6615,0.1069336,-0.9624023000000002,0.1787109,-54.695119999999996,18.17073,30.12195,-0.17382809999999999,-1.435547,0.10791019999999998,-62.07317,-115.8537,-74.69511999999999,1.0424799999999999,-0.6098633000000001,0.6171875,-29.268290000000004,-116.2195,-55.54878000000001,-0.38378909999999994,-0.01611328,0.7011719,176.9512,-70.12196,-51.82927
0.6642,0.125,-0.9404296999999998,0.18017579999999997,-58.23171,17.31707,30.36585,-0.13330079999999997,-1.4731450000000001,0.1884766,-60.2439,-114.1463,-70.48781,1.0185549999999999,-0.5864258000000001,0.6191406,-29.451220000000003,-102.0732,-59.390240000000006,-0.15673829999999997,0.3393555,0.7851563,171.2195,-135.6707,-41.402440000000006
0.6669,0.1630859,-0.9306641,0.21679690000000001,-60.06098000000001,17.07317,30.487809999999996,-0.01269531,-1.519043,0.3208008,-58.04878000000001,-113.9024,-69.20732,0.9946289,-0.5917969,0.6411133000000001,-27.804879999999997,-69.5122,-65.91463,0.2460938,0.7373046999999999,0.9213867,168.9634,-167.0122,-26.463420000000003
0.6696,0.1889648,-0.9199219000000001,0.22802729999999996,-63.170730000000006,17.92683,31.341459999999998,0.05908203,-1.524414,0.375,-57.62195,-114.6341,-71.21951,0.9394530999999999,-0.6113281,0.6611328000000001,-25.97561,-52.13415,-67.07316999999999,0.4091797,0.7817383000000001,0.9624023000000002,164.8781,-193.4756,19.939020000000003
0.6723,0.1923828,-0.9179688,0.21728520000000004,-65.12196,18.536579999999997,31.951220000000003,0.2226563,-1.463379,0.4790039000000001,-57.682930000000006,-113.8415,-77.98781,0.9091796999999998,-0.6430664,0.7192383000000001,-25.73171,-22.2561,-67.37805,0.6796875,0.625,0.9477539,162.439,-178.2927,48.597559999999994
0.675,0.184082,-0.9155273000000002,0.18359379999999997,-68.84147,20.060979999999997,33.17073,0.3125,-1.403809,0.5400391,-57.5,-112.9268,-81.70732,0.8544921999999998,-0.7163086,0.9560546999999998,-18.536579999999997,10.30488,-65.0,0.796875,0.4633789000000001,0.8837891,153.4756,-92.2561,100.7317
0.6777,0.1767578,-0.9199219000000001,0.17236329999999997,-70.79269000000001,20.60976,33.902440000000006,0.47314449999999997,-1.238281,0.6704102,-56.28049,-109.3293,-85.67073,0.815918,-0.7705078000000001,1.078125,-12.2561,24.87805,-63.23171,0.8862305,0.0546875,0.7236328000000001,144.3902,-32.073170000000005,118.2927
0.6804,0.1318359,-0.9257813,0.168457,-74.14634000000001,20.792679999999997,36.82927,0.565918,-1.0698239999999999,0.8100586,-55.73171,-107.1341,-85.06097,0.7480469,-0.8291016,1.1450200000000001,6.768292999999999,34.5122,-60.2439,0.8261719000000001,-0.1547852,0.6801758000000001,123.9024,95.2439,134.3902
0.6831,0.1118164,-0.9282226999999998,0.16992190000000001,-75.0,19.81707,38.35366,0.6113281,-1.005859,0.8828125,-53.475609999999996,-99.63415,-79.69511999999999,0.737793,-0.8227539,1.115723,14.5122,31.58537,-59.2683,0.4746094,-0.5039063,0.6787109,114.2683,151.0366,135.7927
0.6858,0.10839839999999999,-0.9267578000000002,0.15234379999999997,-76.95121999999999,17.5,40.85366,0.6479491999999999,-0.9370117,1.027832,-51.95122,-94.63415,-75.85365999999999,0.7954102,-0.8081055,1.075684,23.41463,25.48781,-61.036590000000004,0.21923829999999997,-0.6347656,0.7099609,102.1341,220.9146,128.1707
0.6885,0.11328130000000002,-0.9257813,0.1474609,-78.35365999999999,16.34146,42.68293,0.6430664,-0.9345703000000002,1.092285,-50.0,-83.17073,-65.54878000000001,0.8374023000000002,-0.7929688,1.0473629999999998,27.43903,26.280490000000004,-64.14634000000001,-0.3295898,-0.8330078000000002,0.8764648000000002,100.6707,226.8293,119.5732
0.6912,0.14257809999999999,-0.9506836,0.1508789,-81.15854,14.451220000000001,45.975609999999996,0.625,-0.9570313,1.204102,-49.69512,-77.07316999999999,-60.2439,0.8525391,-0.7646484,1.014648,34.14634,39.63415,-70.79269000000001,-0.769043,-0.8994141,0.9750976999999998,110.4878,178.2317,92.86585
0.6939,0.168457,-0.9677734,0.14794920000000003,-82.0122,13.658539999999999,48.04878,0.6196289,-0.9658203000000002,1.245117,-49.20732,-64.81708,-54.57317,0.8110352,-0.75,1.033203,38.65854,51.34146,-71.7683,-0.8891601999999998,-0.8798828000000002,0.934082,115.9146,132.0122,75.91463
0.6966,0.23486329999999997,-0.9907226999999998,0.1625977,-82.37805,13.902439999999999,52.37805,0.6030273,-0.9790039,1.2700200000000001,-49.32927,-52.31707,-55.06098000000001,0.6088866999999999,-0.71875,1.0776370000000002,52.19512,76.82927,-62.804880000000004,-0.8725586,-0.809082,0.7983398,114.1463,28.719509999999996,41.21951
0.6993,0.2587891,-1.005371,0.14453129999999997,-82.13415,18.47561,60.792680000000004,0.5649414,-0.9838867,1.236816,-49.390240000000006,-46.402440000000006,-55.670730000000006,0.6357421999999999,-0.6362305,0.8588867,56.829269999999994,79.81708,-54.63415,-0.7329102,-0.7773438,0.7548828000000001,107.62200000000001,-15.0,25.12195
0.7020000000000001,0.2612305,-1.072754,0.09423828,-83.65854,23.10976,67.7439,0.5800781,-1.013184,1.1484379999999998,-50.18293,-33.414629999999995,-55.4878,0.7548828000000001,-0.6279296999999999,0.7602539,54.207319999999996,46.21951,-57.62195,-0.3173828,-0.7177734,0.762207,93.35365999999999,-72.80488000000001,-2.804878
0.7047,0.37402340000000006,-1.146973,0.05712891,-82.43903,32.19512,76.7683,0.6298828000000001,-1.008789,1.110352,-49.69512,-27.43903,-57.317069999999994,0.8735351999999998,-0.684082,0.45019529999999996,50.85366,13.902439999999999,-70.91463,-0.1118164,-0.6723633000000001,0.7905273,87.13415,-89.57316999999999,-22.2561
0.7074,0.4360352,-1.208008,0.1230469,-81.40244,40.36586,81.03659,0.6762695,-0.8984375,1.021484,-49.024390000000004,-13.658539999999999,-61.7683,0.8554688,-0.6904296999999999,0.2490234,39.7561,-58.96341999999999,-103.8415,0.1811523,-0.5371094,0.862793,87.7439,-83.53659,-27.2561
0.7101,0.31494140000000004,-1.1791989999999999,0.27880859999999996,-70.91463,52.86586,86.46342,0.5307616999999999,-0.7573241999999999,0.8583984,-50.30488,-7.865854,-60.12195,0.8876953000000002,-0.6835938,0.1230469,33.29268,-82.19511999999999,-115.4878,0.27880859999999996,-0.4433594,0.8549805,90.85365999999999,-51.28049,-30.731709999999996
0.7128,0.2373047,-1.10791,0.16357420000000003,-65.36585,57.7439,88.29269000000001,0.4389648,-0.7133789,0.7641602,-50.12195,3.3536589999999995,-49.939029999999995,1.046875,-0.699707,0.21142579999999997,22.804879999999997,-86.7683,-127.0732,0.3769531,-0.2705078,0.7988281,90.0,-29.93903,-31.82927
0.7155,0.1206055,-1.0083010000000001,0.0034179690000000003,-68.10976,63.41463,89.93903,0.3076172,-0.6772461,0.6293945,-47.926829999999995,8.841464,-43.35366,1.663574,-0.7578125,0.5732421999999999,18.84146,-69.02439,-150.4268,0.355957,-0.21923829999999997,0.765625,82.5,12.37805,-32.2561
0.7182,0.10302730000000002,-1.0043950000000001,-0.05712891,-70.79269000000001,63.902440000000006,91.15854,0.2412109,-0.6743164,0.5458984,-40.30488,21.21951,-29.39025,1.946289,-0.7851563,0.7329102,18.536579999999997,-56.707319999999996,-171.0976,0.20263670000000003,-0.2006836,0.7192383000000001,76.34147,30.548779999999997,-30.2439
0.7209,0.13085940000000001,-1.095215,-0.06494141,-77.37805,67.19511999999999,92.37805,0.1665039,-0.7485352,0.48535159999999994,-36.585370000000005,29.207320000000003,-23.35366,2.102539,-0.8125,0.7885741999999999,19.81707,-17.195120000000003,-209.6951,0.13671879999999997,-0.22851559999999999,0.7197266,62.682930000000006,55.91463,-25.12195
0.7236,0.1665039,-1.152832,0.04736328,-78.59756,69.69511999999999,92.43903,0.1074219,-0.8461914,0.47167970000000004,-31.158540000000002,47.13415,-14.207320000000001,1.9414060000000002,-0.7954102,0.6918945,20.91463,13.109760000000001,-217.7439,0.009277344,-0.3486328,0.7641602,56.707319999999996,60.42683,-24.32927
0.7263,0.18359379999999997,-1.1831049999999999,0.21826170000000003,-70.2439,74.69511999999999,91.82927,-0.03955078,-1.1123049999999999,0.5888671999999999,-22.7439,56.46341999999999,-8.658536999999999,1.305664,-0.6782227,0.4589844,22.560979999999997,94.7561,-198.5366,-0.05029297,-0.42626949999999997,0.7963866999999999,49.14634,53.597559999999994,-26.341459999999998
0.7290000000000001,0.1630859,-1.154297,0.23876950000000002,-62.987809999999996,82.2561,95.48781,-0.1611328,-1.2700200000000001,0.5825195,-15.914629999999999,56.95121999999999,-4.939024,0.9375,-0.6054688,0.4067383,23.17073,141.2195,-175.3049,-0.09765625,-0.5737305,0.8378905999999999,46.21951,42.5,-28.719509999999996
0.7317,0.144043,-1.017578,0.21533200000000002,-61.707319999999996,86.70732,98.78049,-0.328125,-1.595703,0.4428710999999999,-4.268293,46.95122,1.7073169999999998,0.2856445,-0.48730470000000004,0.4628906,25.85366,222.6829,-122.9878,-0.04345703,-0.6479491999999999,0.8544921999999998,41.524390000000004,8.902439,-35.0
0.7344,0.144043,-0.9521484,0.1860352,-63.96341999999999,96.03659,108.2927,-0.3823242,-1.759766,0.3237305,-0.18292679999999997,37.7439,3.8414639999999998,0.04199219,-0.45019529999999996,0.5537109,27.804879999999997,245.9146,-101.5854,0.01660156,-0.644043,0.8681641,39.20732,-10.79268,-38.23171
0.7371,0.1674805,-0.894043,0.1640625,-66.82927,101.8902,114.8781,-0.3686523,-2.006836,0.06640625,3.7195120000000004,20.42683,3.3536589999999995,-0.2856445,-0.4296875,0.7036133000000001,33.78049,238.8415,-80.60976,0.1577148,-0.519043,0.9057617,35.975609999999996,-43.78049,-42.31707
0.7398,0.2905273,-0.8481445,0.19335940000000001,-66.34146,111.9512,128.1707,-0.293457,-2.049316,-0.1259766,2.987805,13.902439999999999,-1.463415,-0.4165039000000001,-0.4663085999999999,0.7167969,35.85366,207.6829,-81.7683,0.22021479999999996,-0.4238281,0.9169921999999998,33.29268,-58.41463,-39.69512
0.7425,0.3706055,-0.8544921999999998,0.1577148,-65.2439,116.9512,132.9878,-0.2373047,-2.0004880000000003,-0.1630859,0.18292679999999997,6.890244,-12.86585,-0.43066409999999994,-0.49902340000000006,0.6728516,32.62195,117.9878,-99.87805,0.32910159999999994,-0.21142579999999997,0.9165039,31.036590000000004,-57.804880000000004,-36.402440000000006
0.7452,0.5620116999999999,-0.96875,0.08544922,-69.14634000000001,126.0976,139.939,-0.1455078,-1.811035,-0.2006836,-0.8536585999999999,4.817073000000001,-19.02439,-0.41113279999999996,-0.5986328000000001,0.559082,29.63415,69.81708,-113.3537,0.36035159999999994,-0.1279297,0.9140625,23.65854,-45.12195,-26.524390000000004
0.7479,0.59375,-1.057617,0.1176758,-73.23170999999999,130.061,140.4268,-0.07568359,-1.715332,-0.1616211,-2.865854,5.121951,-27.2561,-0.36962890000000004,-0.6381836,0.5,24.93903,-12.2561,-137.2561,0.3769531,-0.03173828,0.9228516,18.84146,-34.63415,-19.63415
0.7506,0.9458008,-1.283203,-0.02392578,-76.46342,140.9146,140.3659,0.006835938000000001,-1.5551760000000001,-0.10058589999999999,-3.9634150000000004,5.3048779999999995,-29.695120000000003,-0.1899414,-0.6723633000000001,0.45996090000000006,22.439020000000003,-40.609759999999994,-145.1219,0.3637695,-0.03076172,0.9326171999999998,9.024389999999999,-11.402439999999999,-6.707317
0.7533,1.279297,-1.479492,-0.1293945,-83.71951,143.4756,125.9756,0.03466797,-1.4838870000000002,-0.03955078,-8.353659,2.865854,-26.15854,-0.04736328,-0.6704102,0.47949220000000004,15.975610000000001,-73.23170999999999,-152.6829,0.2924805,-0.112793,0.9296875,5.0,-0.3048781,-1.036585
0.7559999999999999,2.200195,-2.556152,-0.046875,-106.2805,146.3415,63.35366,0.05029297,-1.345215,0.07714844,-12.19512,0.2439024,-15.670729999999999,0.29589840000000006,-0.6367188,0.5112305,10.18293,-85.54878000000001,-157.3171,0.2504883,-0.1806641,0.918457,-1.2195120000000002,15.182929999999999,7.1951220000000005
0.7587,2.269043,-4.092773,0.6191406,-123.5976,111.9512,-7.439024000000001,0.05078125,-1.264648,0.1352539,-13.719510000000001,-1.8902439999999998,-10.609760000000001,0.4667969,-0.6245116999999999,0.4902344,9.268292,-87.80488000000001,-159.6342,0.1743164,-0.3466797,0.9116211,-3.7195120000000004,17.7439,9.146341
0.7614,0.9355469000000001,-4.525391,2.40918,-42.19512,40.06098,-131.7683,0.02929688,-1.144531,0.20117190000000001,-16.036579999999997,-3.231707,-4.1463410000000005,0.6547852,-0.6704102,0.1899414,12.5,-80.79269000000001,-163.2317,0.1435547,-0.42089840000000006,0.9223633,-5.97561,12.86585,8.231708
0.7641,0.6865234,-3.5117190000000003,2.0009770000000002,105.12200000000001,111.5854,-91.64635,0.01123047,-1.114746,0.2021484,-18.65854,-3.5975610000000002,-2.3780490000000003,0.5849609,-0.7543945,-0.10644529999999999,10.18293,-66.82927,-158.8415,0.09375,-0.5170898,0.9248046999999998,-5.487805000000001,6.097561,6.280488
0.7668,0.5996094,-0.777832,0.8491211,124.2683,117.7439,-70.36585,-0.01220703,-1.1137700000000001,0.20507809999999999,-23.10976,-2.987805,-0.8536585999999999,0.19140629999999997,-1.091797,-0.6362305,-9.878049,-8.04878,-122.561,0.04199219,-0.512207,0.8881836,-2.865854,-10.975610000000001,2.804878
0.7695,0.8344726999999998,0.7817383000000001,0.203125,83.23170999999999,94.14635,-42.56098,0.009765625,-1.080078,0.24023440000000001,-24.87805,-2.865854,-1.2804879999999998,-0.01074219,-1.302246,-0.7485352,-26.219509999999996,35.2439,-92.80488000000001,0.02880859,-0.4829102,0.8574219000000001,-1.8902439999999998,-18.59756,2.3780490000000003
0.7722,1.1098629999999998,0.9003905999999999,0.18554690000000001,46.15854,76.89024,-31.524390000000004,0.02441406,-1.041504,0.2504883,-25.12195,-1.9512200000000002,-3.7804879999999996,-0.2939453,-1.708496,-0.5839844,-59.390240000000006,127.62200000000001,-29.024390000000004,0.05810547,-0.3935547,0.8227539,-1.097561,-28.841459999999998,2.134146
0.7749,1.657715,0.05371094,0.5541991999999999,-7.317073,59.7561,-30.487809999999996,0.006835938000000001,-0.9848633,0.24853520000000004,-25.548779999999997,-1.8902439999999998,-5.2439029999999995,-0.32421880000000003,-1.8945310000000002,-0.33837890000000004,-70.2439,161.6463,-4.329268,0.08984375,-0.3613281,0.8251953000000002,-2.4390240000000003,-31.89025,0.4878049
0.7776,1.7001950000000001,-0.5913086,0.8037109,-16.951220000000003,60.975609999999996,-39.45122,-0.01611328,-0.9863280999999999,0.24414059999999999,-27.62195,-2.5609759999999997,-5.9146339999999995,-0.26464840000000006,-2.178223,0.23632809999999999,-74.7561,174.93900000000002,11.82927,0.1337891,-0.34130859999999996,0.8457030999999999,-3.7804879999999996,-31.524390000000004,-0.1219512
0.7803,1.494141,-1.599609,1.1015629999999998,-8.109755999999999,75.67073,-57.317069999999994,-0.06933594,-1.0078129999999998,0.2602539,-28.475609999999996,-3.5365849999999996,-5.060976,-0.1689453,-2.260254,0.5146484,-71.7683,152.0122,3.109756,0.1430664,-0.3515625,0.8549805,-5.792683,-26.768290000000004,0.42682929999999997
0.7829999999999999,1.337891,-1.837402,1.130859,3.04878,84.14635,-62.682930000000006,-0.08349609,-1.01416,0.2661133,-28.597559999999998,-4.573171,-4.268293,-0.13330079999999997,-2.222656,0.5141602,-69.93903,72.68293,-37.68293,0.15429690000000001,-0.44091800000000003,0.8388671999999998,-6.5853660000000005,-23.78049,1.646341
0.7857,1.073242,-1.887207,1.0390629999999998,26.219509999999996,89.08537,-69.63415,-0.1049805,-0.9951171999999998,0.2641602,-30.0,-4.512194999999999,-5.8536589999999995,-0.11572269999999998,-2.075195,0.390625,-73.53659,32.2561,-62.62195,0.1630859,-0.49511720000000004,0.8144531,-8.170732000000001,-20.12195,4.207317
0.7884,0.9848633,-1.788574,0.9975586,35.4878,84.7561,-72.19511999999999,-0.09570313,-0.9790039,0.2661133,-31.82927,-2.987805,-7.926829,-0.1303711,-1.984863,0.32714840000000006,-82.0122,-22.98781,-101.8902,0.16015629999999997,-0.5566406,0.784668,-8.841464,-19.57317,4.268293
0.7911,0.909668,-1.459473,0.984375,52.13415,71.46342,-72.31708,-0.06201172,-0.9682617,0.2514648,-35.0,-1.463415,-12.92683,-0.15234379999999997,-1.759766,0.2333984,-84.2683,-36.15854,-110.6098,0.15625,-0.5571289,0.7949219,-8.292683,-18.35366,3.2926830000000002
0.7938,0.9243164,-1.302246,0.9814453000000002,60.975609999999996,60.182930000000006,-70.60976,-0.0390625,-0.9765625,0.23876950000000002,-35.4878,-1.8902439999999998,-14.7561,-0.1474609,-1.6376950000000001,0.20507809999999999,-88.59756,-39.7561,-104.8781,0.1191406,-0.5063477,0.8359375,-7.7439029999999995,-16.89024,2.4390240000000003
0.7965,0.9516601999999998,-1.116211,1.003418,61.890240000000006,56.46341999999999,-69.5122,-0.01757813,-0.9853516,0.2158203,-35.85366,-2.5609759999999997,-16.15854,-0.10644529999999999,-1.4057620000000002,0.20263670000000003,-95.30488000000001,-27.31707,-78.65854,0.10253910000000001,-0.46777340000000006,0.8505859,-5.792683,-12.92683,0.18292679999999997
0.7992,0.9672851999999998,-1.088867,1.021973,61.402440000000006,53.23171,-68.53659,-0.006835938000000001,-0.9750976999999998,0.21533200000000002,-35.79268,-2.926829,-15.975610000000001,-0.06396484,-1.311035,0.2226563,-99.14635,-20.12195,-63.475609999999996,0.07128906,-0.3920898,0.847168,-5.426829,-13.414629999999999,-0.7926829000000001
0.8019,0.9941405999999999,-1.103027,1.052734,60.85366,53.04878000000001,-69.45121999999999,0.004394531,-0.965332,0.21533200000000002,-36.7683,-2.5,-15.426829999999999,0.03125,-1.188965,0.2895508,-106.1585,-7.317073,-37.80488,0.07080078,-0.35546880000000003,0.8256836,-6.219512,-20.0,-2.5609759999999997
0.8046,0.9833984,-1.165527,1.066406,60.975609999999996,52.31707,-73.71951,0.0078125,-0.9633789,0.22851559999999999,-37.926829999999995,-2.195122,-15.36585,0.07226563,-1.1635739999999999,0.3295898,-108.4146,-3.5975610000000002,-27.804879999999997,0.07861328,-0.35400390000000004,0.8183594,-6.951219999999999,-25.060979999999997,-2.5
0.8073,0.9541016,-1.20459,1.064453,62.0122,50.85366,-76.89024,0.00390625,-0.9604492,0.23876950000000002,-39.69512,-1.7682930000000001,-14.573170000000001,0.1298828,-1.2001950000000001,0.4003906,-111.4634,-3.109756,-12.5,0.08691406,-0.3808594,0.8139648,-8.292683,-32.37805,-0.7317073000000001
0.81,0.8745117,-1.2685549999999999,1.0498049999999999,64.69511999999999,46.036590000000004,-83.23170999999999,-0.02929688,-0.9570313,0.2602539,-40.12195,-2.073171,-13.536589999999999,0.14794920000000003,-1.253418,0.43066409999999994,-112.3781,-4.939024,-5.426829,0.09570313,-0.4013672,0.809082,-8.780488,-32.62195,0.0
0.8127,0.8320313,-1.2856450000000001,1.041016,66.95121999999999,42.7439,-85.54878000000001,-0.04541016,-0.9521484,0.262207,-40.18293,-3.109756,-12.86585,0.1762695,-1.39209,0.4711914000000001,-113.7805,-8.963415,8.658536999999999,0.13085940000000001,-0.46191409999999994,0.8066406,-9.634147,-26.402440000000002,0.7317073000000001
0.8154,0.7568359,-1.303711,1.03125,71.64634000000001,35.0,-89.32927,-0.06884766,-0.9682617,0.2333984,-40.06098,-3.6585370000000004,-12.19512,0.20263670000000003,-1.459473,0.47363279999999996,-114.2073,-10.36585,15.2439,0.1518555,-0.4980469,0.8095703000000001,-10.67073,-19.63415,-0.9756098
0.8181,0.7216796999999999,-1.3041989999999999,1.0283200000000001,73.96342,31.402440000000002,-90.48781,-0.06738281,-0.9863280999999999,0.21435549999999998,-40.54878,-3.109756,-12.0122,0.2612305,-1.566406,0.46875,-115.5488,-10.975610000000001,25.792679999999997,0.1630859,-0.5327148,0.8139648,-10.67073,-18.84146,-2.3780490000000003
0.8208,0.6660156,-1.305664,1.0268549999999999,77.86585,25.18293,-91.89024,-0.04150391,-1.004883,0.1977539,-41.28049,-2.317073,-13.353660000000001,0.29150390000000004,-1.596191,0.4584960999999999,-115.8537,-11.402439999999999,28.719509999999996,0.1538086,-0.5317383000000001,0.8251953000000002,-9.756098,-21.64634,-4.329268
0.8235,0.6411133000000001,-1.311523,1.0234379999999998,80.12196,22.31707,-92.62196,-0.03271484,-1.006348,0.19726559999999999,-41.21951,-2.195122,-14.146339999999999,0.3217773,-1.5908200000000001,0.44189449999999997,-117.5,-13.170729999999999,30.42683,0.12109380000000002,-0.4907227,0.8344726999999998,-8.719512,-23.23171,-3.9634150000000004
0.8262,0.5976563,-1.318359,1.002441,83.35365999999999,17.37805,-93.78049,-0.01757813,-0.9907226999999998,0.2045898,-41.95122,-3.6585370000000004,-14.87805,0.3217773,-1.518066,0.44628909999999994,-118.7805,-15.0,30.2439,0.1152344,-0.4589844,0.8305664,-7.5,-23.292679999999997,-1.8292680000000001
0.8289,0.5805664,-1.321777,0.9897461,86.15854,11.70732,-96.15854,-0.01123047,-0.9892578000000002,0.1987305,-42.2561,-4.390244,-14.695120000000001,0.31933590000000006,-1.4658200000000001,0.453125,-120.4268,-20.12195,31.036590000000004,0.1196289,-0.3955078,0.8134766,-6.890244,-21.463420000000003,-1.402439
0.8316,0.5473633000000001,-1.3208010000000001,0.9648438,88.10976,8.597561,-97.7439,-0.004882813,-0.9765625,0.16015629999999997,-42.31707,-6.280488,-13.963420000000001,0.31933590000000006,-1.339844,0.46435550000000003,-120.7317,-23.71951,32.439029999999995,0.1298828,-0.3720703,0.8051758000000001,-7.621952,-18.65854,-2.3780490000000003
0.8343,0.5288086,-1.326172,0.9462891,91.70732,2.926829,-101.2195,-0.01025391,-0.984375,0.1455078,-42.86586,-6.219512,-13.841460000000001,0.33203130000000003,-1.274414,0.46435550000000003,-121.7683,-32.2561,36.890240000000006,0.1552734,-0.3623047,0.800293,-8.109755999999999,-17.86585,-3.5365849999999996
0.8370000000000001,0.5097656,-1.32959,0.9379883,93.41463,0.6707316999999999,-103.0488,-0.01904297,-0.9833984,0.1547852,-43.65854,-5.609756,-12.92683,0.3735352,-1.1567379999999998,0.44873050000000003,-123.0488,-40.85366,43.71951,0.1533203,-0.3691406,0.8076171999999999,-8.902439,-17.62195,-4.512194999999999
0.8397,0.4780273,-1.3325200000000001,0.9140625,96.64635,-3.6585370000000004,-106.2195,-0.046875,-0.9785155999999999,0.19335940000000001,-43.71951,-5.8536589999999995,-12.43902,0.3969727,-1.100098,0.4394531,-123.8415,-44.20732,47.926829999999995,0.14013670000000003,-0.40966800000000003,0.8261719000000001,-8.719512,-16.58537,-3.04878
0.8424,0.4589844,-1.330566,0.9008789,98.53659,-5.487805000000001,-107.8659,-0.04785156,-0.9858398000000002,0.20654299999999998,-43.475609999999996,-6.280488,-12.86585,0.4614258,-1.026367,0.43408199999999997,-126.0366,-47.2561,57.9878,0.15576170000000003,-0.45751949999999997,0.8222655999999999,-8.353659,-11.82927,0.3048781
0.8451,0.42285159999999994,-1.3286129999999998,0.8623046999999998,100.7927,-8.780488,-110.4878,-0.01513672,-1.002441,0.1884766,-42.56098,-6.463415,-13.658539999999999,0.4936523,-1.004883,0.4360352,-127.0122,-47.62195,63.109759999999994,0.1733398,-0.47167970000000004,0.8095703000000001,-8.292683,-9.024389999999999,1.463415
0.8478,0.40869140000000004,-1.339844,0.8442383,102.3781,-9.939025,-111.3415,-0.002441406,-1.0073239999999999,0.16601559999999999,-41.036590000000004,-6.707317,-15.182929999999999,0.5683594,-0.9755859,0.45019529999999996,-129.2683,-46.036590000000004,73.35365999999999,0.20117190000000001,-0.484375,0.8081055,-8.292683,-5.8536589999999995,0.3048781
0.8505,0.38525390000000004,-1.345703,0.8154296999999999,105.061,-12.7439,-113.5976,0.01123047,-1.010742,0.13671879999999997,-41.64634,-6.829267999999999,-15.975610000000001,0.6025391,-0.972168,0.4614258,-130.1219,-45.0,78.10976,0.19580079999999997,-0.4692383,0.8183594,-7.256098,-5.3048779999999995,-2.987805
0.8532,0.3730469,-1.350586,0.7973633000000001,106.1585,-14.207320000000001,-114.6951,0.0014648439999999999,-1.001465,0.1494141,-42.5,-7.439024000000001,-15.487810000000001,0.6708984,-0.9790039,0.48925779999999996,-132.1342,-43.35366,85.85365999999999,0.1459961,-0.4213867,0.8349609,-6.097561,-4.512194999999999,-2.987805
0.8559,0.3535156,-1.341309,0.7592773,108.9634,-16.09756,-116.6463,-0.03076172,-0.9750976999999998,0.19921879999999997,-42.56098,-9.939025,-14.207320000000001,0.703125,-0.9848633,0.49707029999999996,-132.6829,-43.78049,88.65854,0.12109380000000002,-0.40527340000000006,0.8295898000000002,-4.817073000000001,-1.463415,-0.42682929999999997
0.8586,0.340332,-1.3354489999999999,0.7416991999999999,111.1585,-17.68293,-118.4146,-0.0390625,-0.9624023000000002,0.22412110000000002,-41.28049,-10.54878,-14.207320000000001,0.762207,-0.9946289,0.503418,-134.0854,-45.85366,92.62196,0.09423828,-0.40087890000000004,0.7973633000000001,-4.817073000000001,0.3048781,1.585366
0.8613,0.3168945,-1.3154299999999999,0.7060546999999999,112.0732,-18.292679999999997,-119.5122,-0.01416016,-0.9399414,0.2382813,-39.2683,-9.390244000000001,-15.426829999999999,0.7905273,-0.996582,0.49902340000000006,-134.8171,-47.073170000000005,93.96342,0.09765625,-0.41796880000000003,0.7856445,-6.52439,0.6707316999999999,3.4756099999999996
0.8640000000000001,0.3041992,-1.306641,0.6914063,113.5976,-19.207320000000003,-121.0366,0.005371094,-0.9423828000000002,0.20263670000000003,-38.109759999999994,-8.414635,-16.09756,0.8378905999999999,-0.9897461,0.49560550000000003,-136.7683,-47.62195,95.06097,0.1206055,-0.4589844,0.7836914,-7.317073,-1.1585370000000002,3.04878
0.8667,0.28222659999999994,-1.293457,0.6650391,114.5122,-19.451220000000003,-121.9512,0.00390625,-0.9345703000000002,0.1962891,-37.37805,-8.04878,-16.52439,0.8837891,-0.9799805,0.4907227,-137.9268,-46.95122,95.2439,0.1279297,-0.47558590000000006,0.7973633000000001,-8.231708,-6.768292999999999,0.3658537
0.8694,0.2612305,-1.2939450000000001,0.6264648,114.8781,-20.18293,-123.8415,-0.0034179690000000003,-0.9291992,0.21240229999999996,-36.82927,-7.926829,-16.15854,0.9013671999999998,-0.965332,0.4907227,-140.0,-44.573170000000005,95.30488000000001,0.09667969,-0.4858398,0.8334961,-7.1951220000000005,-8.963415,-0.6707316999999999
0.8721,0.2597656,-1.302734,0.6196289,115.12200000000001,-20.73171,-125.1829,-0.01074219,-0.9194336,0.2333984,-35.36586,-7.5,-14.939020000000001,0.9135742,-0.9311523000000002,0.4765625,-141.5244,-42.86586,95.12196,0.07763672,-0.48144529999999996,0.840332,-4.573171,-9.878049,0.3658537
0.8748,0.253418,-1.318848,0.6206055,116.2195,-21.82927,-127.8659,-0.02197266,-0.9223633,0.23632809999999999,-35.0,-7.1951220000000005,-14.573170000000001,0.9135742,-0.909668,0.46435550000000003,-144.3293,-38.29268,95.60976,0.06835938,-0.48339840000000006,0.8154296999999999,-4.0853660000000005,-9.512196000000001,1.585366
0.8775,0.2470703,-1.314453,0.6210938,117.6829,-22.2561,-129.1463,-0.01904297,-0.9287109,0.22802729999999996,-33.96342,-6.52439,-14.390239999999999,0.9023438,-0.8671875,0.4472656,-147.561,-33.17073,96.7683,0.09716797,-0.4785156,0.7802734,-4.512194999999999,-11.524389999999999,2.012195
0.8802,0.23632809999999999,-1.300781,0.609375,118.5976,-22.68293,-131.8902,-0.0029296879999999997,-0.9345703000000002,0.1889648,-32.62195,-6.097561,-14.573170000000001,0.8911133,-0.8486328000000002,0.4399414000000001,-149.1463,-30.731709999999996,97.98781,0.1152344,-0.47753909999999994,0.7768555,-5.121951,-15.182929999999999,0.7926829000000001
0.8829,0.23291020000000004,-1.2890629999999998,0.6088866999999999,119.2683,-22.804879999999997,-133.3537,-0.01269531,-0.9321289,0.1767578,-32.62195,-6.158537,-14.451220000000001,0.8696289,-0.8168945,0.44873050000000003,-152.439,-25.36585,101.0976,0.12353519999999998,-0.47558590000000006,0.7954102,-5.548780000000001,-23.90244,-2.5
0.8856,0.22900389999999998,-1.271973,0.5986328000000001,119.7561,-23.10976,-135.5488,-0.03515625,-0.9272461,0.2001953,-32.073170000000005,-6.158537,-14.146339999999999,0.855957,-0.8046875,0.4589844,-154.0244,-22.92683,102.8659,0.11328130000000002,-0.4711914000000001,0.8032227,-4.329268,-29.81707,-2.5
0.8883,0.22412110000000002,-1.262207,0.5981445,119.8781,-23.47561,-136.7683,-0.04443359,-0.9199219000000001,0.2099609,-31.463420000000003,-6.402439,-14.024389999999999,0.8349609,-0.8012695,0.49707029999999996,-155.8537,-19.32927,106.2195,0.1040039,-0.4750977,0.7954102,-3.7804879999999996,-29.695120000000003,-1.52439
0.8909999999999999,0.21679690000000001,-1.248535,0.5820313,120.061,-23.47561,-138.7805,-0.04980469,-0.9047851999999998,0.23193360000000002,-29.5122,-6.036585,-14.390239999999999,0.8286133,-0.8041991999999999,0.5195313,-156.4634,-18.41463,107.9268,0.1098633,-0.48144529999999996,0.7797852,-3.7195120000000004,-28.475609999999996,0.9756098
0.8937,0.21679690000000001,-1.2421879999999998,0.5776366999999999,120.3049,-23.963420000000003,-139.8781,-0.02832031,-0.9116211,0.1962891,-28.841459999999998,-5.3048779999999995,-15.060979999999999,0.8178711,-0.8286133,0.5551758000000001,-157.561,-17.92683,111.0366,0.14111329999999997,-0.4916992,0.7597656,-4.512194999999999,-27.987809999999996,1.2195120000000002
0.8964,0.20947270000000004,-1.234375,0.5722656,120.5488,-24.14634,-140.1829,-0.01708984,-0.9150391,0.16992190000000001,-27.86585,-4.0853660000000005,-16.58537,0.8154296999999999,-0.8447266,0.5668945,-158.0488,-18.23171,112.1951,0.15673829999999997,-0.49902340000000006,0.769043,-5.609756,-30.67073,-0.3658537
0.8991,0.1904297,-1.2338870000000002,0.5605469,120.9756,-24.39024,-141.0366,-0.01513672,-0.9335938,0.1494141,-27.86585,-3.8414639999999998,-16.64634,0.7998046999999999,-0.8681641,0.5698241999999999,-158.7195,-19.32927,113.5366,0.16015629999999997,-0.49316409999999994,0.8017578000000001,-6.097561,-32.926829999999995,-1.585366
0.9018,0.1826172,-1.227539,0.5561523,121.7683,-25.0,-140.9756,-0.01757813,-0.9414063,0.15429690000000001,-28.658540000000002,-4.268293,-16.28049,0.7832031,-0.8823242,0.5673828000000001,-159.0244,-18.90244,114.1463,0.1547852,-0.4785156,0.8178711,-5.426829,-36.524390000000004,-2.987805
0.9045,0.1577148,-1.221191,0.5493164,123.1098,-26.219509999999996,-141.2805,-0.02441406,-0.956543,0.1665039,-28.780490000000004,-4.451219999999999,-15.975610000000001,0.7475586,-0.8979492,0.5634766,-159.939,-16.58537,115.6098,0.1484375,-0.45996090000000006,0.8203125,-4.6951220000000005,-37.56098,-2.926829
0.9072,0.1474609,-1.2143549999999999,0.5463866999999999,123.4756,-26.82927,-141.0366,-0.02734375,-0.9638671999999998,0.1586914,-29.207320000000003,-5.182926999999999,-16.707320000000003,0.7045898,-0.8823242,0.5688477,-159.939,-14.695120000000001,116.5854,0.14794920000000003,-0.4477539000000001,0.8041991999999999,-3.7804879999999996,-38.414629999999995,-2.5609759999999997
0.9099,0.125,-1.2036129999999998,0.5366211,124.5732,-28.902440000000002,-140.9756,-0.02880859,-0.9731445,0.1416016,-29.57317,-5.97561,-17.804879999999997,0.6806641,-0.8769530999999999,0.5756836,-161.2195,-11.95122,117.8659,0.1616211,-0.4355469,0.7753906,-4.1463410000000005,-39.024390000000004,-3.109756
0.9126,0.1206055,-1.197266,0.5307616999999999,124.7561,-30.487809999999996,-140.9146,-0.01757813,-0.972168,0.13232420000000003,-29.57317,-5.97561,-18.292679999999997,0.6328125,-0.8466796999999998,0.5961914,-161.4024,-11.524389999999999,118.2927,0.1845703,-0.44042970000000004,0.7856445,-6.280488,-40.67073,-3.5975610000000002
0.9153,0.1015625,-1.17041,0.5131836,125.3049,-33.04878,-141.2195,-0.01074219,-0.9853516,0.1152344,-30.12195,-6.463415,-19.26829,0.6103516,-0.8276367,0.6088866999999999,-160.9146,-12.62195,119.7561,0.1875,-0.43847659999999994,0.7973633000000001,-6.52439,-40.609759999999994,-3.7195120000000004
0.9179999999999999,0.09667969,-1.158691,0.5024414,125.4268,-34.573170000000005,-141.5854,-0.0078125,-0.9912109,0.11572269999999998,-30.304879999999997,-6.768292999999999,-19.5122,0.5703125,-0.7963866999999999,0.6201171999999999,-160.6707,-14.451220000000001,120.6098,0.18945309999999999,-0.43408199999999997,0.8212891,-6.5853660000000005,-38.78049,-4.02439
0.9207,0.08251953,-1.136719,0.4868164000000001,125.7317,-37.073170000000005,-141.5854,0.0034179690000000003,-1.005371,0.125,-30.975609999999996,-7.256098,-19.451220000000003,0.5571289,-0.7797852,0.6245116999999999,-159.6342,-18.90244,123.4146,0.18945309999999999,-0.4291992,0.8232421999999998,-6.158537,-37.073170000000005,-4.02439
0.9234,0.07714844,-1.128418,0.47558590000000006,125.3049,-40.36586,-141.7683,0.015625,-1.0073239999999999,0.1396484,-31.58537,-7.378049000000001,-19.695120000000003,0.5307616999999999,-0.753418,0.6245116999999999,-158.5366,-22.62195,127.0732,0.1904297,-0.42675779999999996,0.8081055,-5.8536589999999995,-33.96342,-3.7804879999999996
0.9261,0.05615234,-1.107422,0.4526367,125.1829,-41.95122,-141.8902,0.02197266,-1.005859,0.1469727,-32.7439,-7.926829,-19.57317,0.5253906,-0.7421875,0.6259766,-158.1098,-24.207320000000003,129.2683,0.1845703,-0.4238281,0.800293,-6.890244,-32.7439,-4.207317
0.9288,0.04736328,-1.103027,0.44091800000000003,124.6951,-45.30488,-142.0732,0.02587891,-1.0,0.17578129999999997,-33.414629999999995,-8.536586,-19.81707,0.5136719,-0.7202148,0.625,-156.9512,-26.219509999999996,134.0854,0.1728516,-0.4233398,0.8051758000000001,-7.1341470000000005,-32.5,-3.9024389999999998
0.9315,0.02539063,-1.087891,0.4155273,124.3902,-46.82927,-142.0122,0.03955078,-0.9931641,0.19580079999999997,-33.414629999999995,-8.231708,-19.26829,0.5151367,-0.7099609,0.6196289,-156.7073,-26.646340000000002,136.5854,0.16210940000000001,-0.42675779999999996,0.8115234,-7.7439029999999995,-29.87805,-3.170732
0.9342,0.004394531,-1.07666,0.39160159999999994,124.0244,-50.12195,-142.0732,0.06933594,-0.9912109,0.1743164,-32.9878,-7.987805000000001,-19.02439,0.4975585999999999,-0.6894531,0.6020508000000001,-155.7317,-26.82927,140.4268,0.1494141,-0.43310550000000003,0.8144531,-7.5,-27.68293,-3.04878
0.9369,-0.006835938000000001,-1.0698239999999999,0.37597659999999994,124.0854,-51.890240000000006,-141.9512,0.08496094,-0.9941405999999999,0.17138670000000003,-33.475609999999996,-7.012194999999999,-19.207320000000003,0.48730470000000004,-0.6762695,0.5932616999999999,-155.7927,-27.0122,142.2561,0.1494141,-0.43066409999999994,0.8173828000000001,-7.560975999999999,-24.93903,-4.268293
0.9396001,-0.0234375,-1.04834,0.347168,123.7805,-55.54878000000001,-141.5244,0.09521484,-0.9970703000000002,0.12353519999999998,-33.597559999999994,-7.012194999999999,-18.292679999999997,0.4663085999999999,-0.6489258000000001,0.5742188,-155.7317,-27.31707,145.7927,0.15039059999999999,-0.43261720000000004,0.8144531,-7.865854,-25.12195,-5.731708
0.9423,-0.03125,-1.0424799999999999,0.3354492,123.7805,-57.2561,-141.7073,0.08203125,-1.0043950000000001,0.112793,-34.7561,-7.256098,-17.439020000000003,0.453125,-0.6313477,0.5629883000000001,-155.6098,-27.31707,147.8049,0.1533203,-0.42871090000000006,0.8222655999999999,-8.170732000000001,-28.536590000000004,-8.292683
0.9450001,-0.04394531,-1.018066,0.2988281,123.5366,-60.54878000000001,-142.1342,0.02734375,-1.0083010000000001,0.15625,-35.85366,-8.719512,-14.939020000000001,0.42529300000000003,-0.5932616999999999,0.5493164,-155.4268,-27.92683,152.0732,0.1357422,-0.43066409999999994,0.8388671999999998,-8.04878,-30.67073,-9.207317
0.9477,-0.04833984,-1.006348,0.2875977,122.9878,-61.707319999999996,-142.3781,-0.01611328,-0.9941405999999999,0.199707,-36.21951,-10.06098,-13.475610000000001,0.41113279999999996,-0.5532227,0.5375977,-155.1219,-28.841459999999998,154.3902,0.1225586,-0.44628909999999994,0.8491211,-5.731708,-29.63415,-7.317073
0.9504,-0.06298828,-0.9775391,0.262207,122.0732,-64.14634000000001,-142.7439,-0.08105469,-0.9692383,0.284668,-35.30488,-12.13415,-11.280489999999999,0.4145508,-0.5317383000000001,0.5332031,-154.6342,-32.19512,158.1098,0.07324219,-0.5029297,0.8691405999999999,-4.6951220000000005,-24.14634,-4.1463410000000005
0.9531,-0.06689453,-0.9624023000000002,0.2504883,121.5854,-65.48781,-142.9268,0.03027344,-0.9770508,0.309082,-32.926829999999995,-9.573171,-13.475610000000001,0.421875,-0.4975585999999999,0.5283203000000001,-154.5122,-34.5122,160.061,0.03662109,-0.5029297,0.7675781,-1.097561,-5.2439029999999995,2.682927
0.9558,-0.09033203,-0.9365234,0.2314453,120.6098,-67.62196,-143.4756,0.1728516,-1.019531,0.17236329999999997,-30.731709999999996,-3.7195120000000004,-19.32927,0.43261720000000004,-0.47998050000000003,0.5258789,-153.7195,-40.36586,163.1707,0.06445313,-0.49609380000000003,0.6787109,-0.18292679999999997,0.9146341999999998,3.4756099999999996
0.9585,-0.1000977,-0.9199219000000001,0.21533200000000002,119.3902,-69.14634000000001,-143.5366,0.121582,-1.011719,0.09912109,-33.23171,-3.9024389999999998,-18.47561,0.4609375,-0.4511719,0.5141602,-153.5366,-43.35366,164.6342,0.18945309999999999,-0.44189449999999997,0.7055664,-6.829267999999999,-8.109755999999999,-5.3048779999999995
0.9612,-0.11865230000000002,-0.8911133,0.1806641,118.7195,-70.0,-143.1707,0.1015625,-1.005859,0.09375,-36.585370000000005,-7.7439029999999995,-12.13415,0.4819335999999999,-0.44140630000000003,0.49511720000000004,-153.2317,-47.13415,166.8902,0.2109375,-0.41699220000000004,0.8041991999999999,-12.37805,-31.280490000000004,-19.207320000000003
0.9639,-0.1357422,-0.8579101999999998,0.14892579999999997,116.4634,-71.34147,-142.8049,0.1020508,-1.010742,0.09472656,-36.097559999999994,-9.024389999999999,-10.0,0.5136719,-0.4277344,0.47998050000000003,-153.5976,-48.536590000000004,169.5732,0.1918945,-0.3720703,0.9501953000000002,-11.402439999999999,-39.085370000000005,-22.92683
0.9666,-0.1416016,-0.8447266,0.1381836,115.7317,-72.07316999999999,-142.3171,0.09179688,-1.021484,0.09033203,-35.85366,-8.170732000000001,-10.12195,0.5229492,-0.4238281,0.4848633,-153.6585,-47.926829999999995,170.9146,0.17382809999999999,-0.34912109999999996,0.9541016,-4.817073000000001,-42.073170000000005,-21.40244
0.9693,-0.1552734,-0.8183594,0.1113281,113.9024,-73.29269000000001,-141.8293,0.04199219,-1.0463870000000002,0.1293945,-36.890240000000006,-7.317073,-10.2439,0.543457,-0.4135742,0.4936523,-152.9268,-45.426829999999995,173.5976,0.1938477,-0.32568359999999996,0.8720703000000002,-2.4390240000000003,-38.414629999999995,-18.47561
0.972,-0.1625977,-0.8027344,0.10449220000000001,112.7439,-73.53659,-141.4024,0.01367188,-1.044922,0.1694336,-38.109759999999994,-7.256098,-9.329267999999999,0.5522461,-0.4047852,0.4907227,-152.5,-43.71951,174.8171,0.2109375,-0.324707,0.8076171999999999,-1.402439,-26.89025,-13.963420000000001
0.9747,-0.17578129999999997,-0.7792969,0.07910156,110.8537,-74.2683,-140.5488,-0.03808594,-1.017578,0.22509770000000004,-37.13415,-9.024389999999999,-9.207317,0.565918,-0.38525390000000004,0.4614258,-152.0122,-41.402440000000006,176.0976,0.20263670000000003,-0.36181640000000004,0.7158203000000001,-2.5,-19.63415,-11.280489999999999
0.9774,-0.1865234,-0.769043,0.06738281,109.5122,-74.32927,-140.2439,-0.046875,-1.0083010000000001,0.23681639999999998,-36.34146,-9.329267999999999,-9.207317,0.5649414,-0.3706055,0.44042970000000004,-152.6829,-40.36586,176.8902,0.19140629999999997,-0.3979492,0.6879883000000001,-5.365854,-2.804878,-5.548780000000001
0.9801,-0.2021484,-0.7416991999999999,0.04541016,106.8293,-74.39024,-139.5732,-0.02880859,-0.9990234,0.20117190000000001,-34.63415,-7.560975999999999,-10.91463,0.5380859,-0.34375,0.40722659999999994,-153.7195,-36.585370000000005,178.6585,0.1889648,-0.48828130000000003,0.6860352,-7.012194999999999,6.158537,-2.5
0.9828,-0.2138672,-0.7333984,0.03417969,105.6098,-74.63415,-139.3293,0.002441406,-1.010742,0.1762695,-33.902440000000006,-6.280488,-12.2561,0.5253906,-0.3286133,0.3969727,-154.4512,-33.17073,179.6951,0.1967773,-0.5366211,0.7036133000000001,-10.18293,17.2561,0.06097561
0.9855,-0.23193360000000002,-0.7138671999999999,0.0234375,102.8659,-75.06097,-139.2683,0.04589844,-1.013184,0.112793,-33.109759999999994,-4.268293,-13.658539999999999,0.4838867,-0.293457,0.36621090000000006,-155.2439,-24.63415,183.2927,0.2265625,-0.5883789,0.7651366999999999,-11.158539999999999,18.292679999999997,-0.9756098
0.9882,-0.25,-0.7016602,0.02050781,101.6463,-75.30488000000001,-139.0854,0.05908203,-1.0112299999999999,0.09277344,-33.414629999999995,-3.9024389999999998,-13.536589999999999,0.4316406,-0.2431641,0.34619140000000004,-156.0366,-20.73171,185.5488,0.2563477,-0.5859375,0.8476563,-11.219510000000001,10.853660000000001,-8.170732000000001
0.9909,-0.269043,-0.6762695,-0.004882813,98.47561,-75.91463,-139.5122,0.06201172,-1.0083010000000001,0.08886719,-33.35366,-4.634146,-12.13415,0.39746090000000006,-0.22070309999999999,0.33691409999999994,-157.8659,-13.170729999999999,191.2805,0.2524414,-0.5625,0.8671875,-9.634147,5.3048779999999995,-13.353660000000001
0.9936,-0.28125,-0.6640625,-0.008789063,94.87805,-76.7683,-139.6951,0.05908203,-1.013672,0.09033203,-32.9878,-5.2439029999999995,-11.158539999999999,0.33349609999999996,-0.1806641,0.3417969,-158.6585,-9.756098,194.3293,0.21875,-0.48144529999999996,0.8662109,-4.6951220000000005,-3.5975610000000002,-20.792679999999997
0.9963,-0.2983398,-0.6391602,-0.02099609,93.10976,-77.5,-140.1219,0.04638672,-1.009277,0.09082031,-32.31707,-5.8536589999999995,-9.756098,0.3144531,-0.1665039,0.3613281,-160.2439,-3.5975610000000002,201.5244,0.2080078,-0.43457029999999996,0.8457030999999999,-0.9756098,-7.317073,-22.62195
0.9990000000000001,-0.3168945,-0.6000977,-0.03369141,89.14635,-78.65854,-140.8537,0.01904297,-1.005371,0.08935547,-32.073170000000005,-5.97561,-9.146341,0.3061523,-0.15234379999999997,0.44970699999999997,-159.6342,-1.2195120000000002,205.4268,0.18798829999999997,-0.3657227,0.7963866999999999,-1.3414629999999998,-7.987805000000001,-21.951220000000003
1.0017,-0.3139648,-0.5771484,-0.03955078,86.7683,-79.08537,-141.2805,0.01269531,-1.008789,0.09521484,-31.707320000000003,-5.9146339999999995,-8.231708,0.3359375,-0.1547852,0.5087891,-155.6707,0.1219512,210.6707,0.1767578,-0.3486328,0.7773438,-3.7195120000000004,-8.353659,-18.59756
1.0044,-0.3183594,-0.5380859,-0.03955078,81.58537,-80.06097,-142.0122,0.005371094,-1.0073239999999999,0.1088867,-30.548779999999997,-5.609756,-9.146341,0.4458008,-0.17578129999999997,0.6245116999999999,-148.1098,-7.1341470000000005,210.2439,0.17138670000000003,-0.3500977,0.7734375,-5.548780000000001,-8.414635,-15.792679999999999
1.0071,-0.3276367,-0.5185547,-0.04736328,78.59756,-80.30488000000001,-142.5,0.009765625,-1.009277,0.10839839999999999,-29.7561,-5.121951,-9.45122,0.5146484,-0.1938477,0.6757813,-143.4146,-13.536589999999999,207.8659,0.1728516,-0.36474609999999996,0.777832,-8.170732000000001,-7.5,-9.268292
1.0098,-0.340332,-0.49902340000000006,-0.04785156,72.68293,-81.28049,-142.3781,0.04736328,-1.010254,0.09521484,-28.048779999999997,-4.451219999999999,-10.18293,0.6655273,-0.2504883,0.7436523,-133.1707,-27.07317,200.2439,0.1938477,-0.41064449999999997,0.7915039,-8.902439,-7.1341470000000005,-6.52439
1.0125,-0.3496094,-0.4863281,-0.05224609,69.45121999999999,-81.40244,-142.1342,0.06738281,-1.009766,0.08203125,-27.2561,-4.1463410000000005,-10.67073,0.7363281,-0.2817383,0.753418,-127.8659,-31.219509999999996,195.6098,0.20898440000000001,-0.42871090000000006,0.7939453000000001,-8.780488,-5.97561,-4.0853660000000005
1.0152,-0.37744140000000004,-0.47265630000000003,-0.05175781,63.65854,-82.56097,-140.7927,0.08154297,-1.012207,0.06494141,-27.2561,-3.5365849999999996,-10.731710000000001,0.8603516,-0.33349609999999996,0.7368164,-117.439,-28.658540000000002,189.3902,0.24023440000000001,-0.453125,0.8032227,-8.719512,-6.219512,-4.207317
1.0179,-0.3891602,-0.4692383,-0.05273438,60.91463,-83.10976,-139.6342,0.0703125,-1.0,0.07617188,-27.2561,-3.5365849999999996,-10.18293,0.9018555,-0.3496094,0.7172852,-112.8049,-21.64634,187.0732,0.24755860000000002,-0.4467773,0.8046875,-8.231708,-8.475610000000001,-7.439024000000001
