Time,RH.ACC.X,RH.ACC.Y,RH.ACC.Z,RH.GY.X,RH.GY.Y,RH.GY.Z,LH.ACC.X,LH.ACC.Y,LH.ACC.Z,LH.GY.X,LH.GY.Y,LH.GY.Z,RT.ACC.X,RT.ACC.Y,RT.ACC.Z,RT.GY.X,RT.GY.Y,RT.GY.Z,LT.ACC.X,LT.ACC.Y,LT.ACC.Z,LT.GY.X,LT.GY.Y,LT.GY.Z
0,-0.2714844,-1.588867,0.3134766,60.12195,-75.85366,-177.439,-2.337891,-1.500977,1.968262,21.03659,77.92683,79.39024,-0.09960938,-0.6401367,1.025879,-250.122,23.78049,58.47561,-0.5996094,-2.619141,-1.832031,-117.3781,57.56098,-24.5122
0.0027,-0.2773438,-1.548828,0.1879883,49.08537,-77.37805,-176.0976,-2.310547,-1.492188,1.911621,28.47561,90.36585,96.95123,-0.08349609,-0.5610352,0.9775391,-254.939,12.2561,60.42683,-0.628418,-2.605469,-1.692383,-129.7561,60.54878,-27.19512
0.0054,-0.253418,-1.5625,0.1796875,41.70732,-76.82927,-177.8049,-2.232422,-1.452148,1.775391,35.4878,99.93903,111.8293,-0.02783203,-0.3964844,0.8071289,-266.2195,10.36585,62.5,-0.6704102,-2.612305,-1.397949,-150.1219,63.41463,-32.19512
0.0081,-0.1723633,-1.657715,0.2563477,31.58537,-73.59756,-188.4146,-2.184082,-1.418945,1.694336,37.9878,104.0854,118.3537,-0.01708984,-0.3496094,0.7363281,-275.061,14.26829,63.47561,-0.6865234,-2.625,-1.258301,-158.4146,63.53659,-35.54878
0.0108,-0.1547852,-1.709473,0.2924805,31.34146,-73.23171,-196.4025,-1.943359,-1.759766,1.385742,31.09756,105.7927,135.061,-0.08154297,-0.3662109,0.7744141,-295.9756,23.65854,65.85366,-0.6938477,-2.661621,-1.016602,-172.5,61.03659,-42.07317
0.0135,-0.2636719,-1.723145,0.1821289,37.43903,-75.91463,-210,-1.720703,-2.212891,1.394043,14.32927,107.1341,159.8171,-0.1220703,-0.4067383,0.8911133,-305.4268,25.48781,66.58537,-0.6933594,-2.671875,-0.9067383,-178.5366,58.90244,-45.2439
0.0162,-0.3417969,-1.692383,0.05517578,39.69512,-76.89024,-212.9878,-1.501465,-2.752441,1.611328,-16.89024,121.2805,230.7927,-0.1445313,-0.4379883,1.047852,-316.9512,21.03659,65.67073,-0.6225586,-2.660645,-0.7231445,-190.6707,55.30488,-52.13415
0.0189,-0.3686523,-1.638672,-0.1416016,37.62195,-74.57317,-214.8171,-1.473145,-2.70166,1.66748,-22.7439,126.3415,263.8415,-0.1489258,-0.394043,0.9624023,-320.061,19.14634,65.48781,-0.465332,-2.603516,-0.5522461,-196.9512,56.34146,-56.15854
0.0216,-0.3183594,-1.644531,-0.1723633,31.52439,-65.12196,-219.939,-1.284668,-1.847168,1.86084,27.37805,135.1829,265.9146,-0.1469727,-0.2695313,0.5922852,-332.8659,21.70732,68.84147,-0.3876953,-2.53125,-0.4291992,-207.6829,67.56097,-63.47561
0.0243,-0.109375,-1.725586,-0.08105469,30.48781,-59.45122,-227.0732,-1.495605,-1.821777,2.477539,94.2683,131.5244,234.0244,-0.1352539,-0.2416992,0.4682617,-345.061,25.2439,70.73171,-0.2705078,-2.242676,-0.09179688,-212.561,75.36585,-64.14634
0.027,-0.008789063,-1.831543,0.004394531,34.2683,-52.92683,-249.5122,-0.9707031,-2.498047,2.721191,283.4756,125.2439,189.2073,-0.109375,-0.293457,0.4667969,-375,29.93903,69.87805,-0.1523438,-1.963867,0.1972656,-236.6463,94.57317,-59.69512
0.0297,-0.05175781,-1.852051,-0.03808594,38.10976,-50.79268,-259.5122,2.055664,-3.247559,0.2016602,360.9756,123.2927,172.5,-0.1098633,-0.3461914,0.5400391,-389.4512,29.20732,67.0122,-0.05761719,-0.784668,1.807129,-322.561,144.5122,-45.79268
0.0324,-0.2875977,-1.842285,-0.2241211,40.85366,-47.37805,-269.8781,3.733887,-2.894531,-2.986328,249.5732,213.5976,109.3293,-0.1323242,-0.3779297,0.6435547,-415.2439,21.28049,61.95122,-0.3671875,0.3452148,2.899902,-380.3049,185.4268,-20.91463
0.0351,-0.4140625,-1.849609,-0.2910156,38.35366,-47.2561,-271.2805,7.343262,-3.015625,-7.141602,-282.8049,384.3903,87.13415,-0.1669922,-0.3237305,0.6245117,-427.8659,15,61.64634,-1.907715,3.35791,5.834473,-462.8049,140.061,95.12196
0.0378,-0.7578125,-1.875488,-0.2192383,33.17073,-51.40244,-275.8537,8.473633,-3.945313,-5.255371,-475.1219,391.2805,99.32927,-0.2832031,0,0.1655273,-455.3049,10.42683,70.30488,-1.80127,5.48584,6.727539,-414.1464,14.7561,177.7439
0.0405,-0.862793,-1.858887,-0.2124023,32.68293,-50.97561,-278.3537,7.506836,-4.909668,0.5195313,-319.6342,171.4025,175.6098,-0.425293,0.2607422,0.4526367,-476.5244,3.963415,79.63415,0.3447266,8.108887,5.832031,-286.1585,-143.0488,230.7317
0.0432,-0.8085938,-1.843262,-0.3979492,25.18293,-35.4878,-294.4512,5.286621,-4.670898,1.48291,-60.73171,45.97561,293.0488,-0.3364258,0.2446289,0.8657227,-518.6586,-37.07317,98.10976,0.6669922,6.906738,5.616211,-261.8293,-137.2561,203.5366
0.0459,-0.6445313,-1.898438,-0.4750977,13.41463,-17.2561,-307.3781,2.251465,-3.333496,-0.3256836,328.5976,-198.6585,596.9512,-0.02294922,-0.1557617,1.838867,-533.1097,-48.84146,101.2805,0.7338867,2.707031,5.680176,-188.6585,-81.15854,187.5
0.0486,-0.07910156,-2.166504,-0.4736328,-7.926829,21.58537,-335.8537,2.08252,-2.566895,-0.9892578,406.7683,-269.8171,684.3293,0.1245117,-0.4467773,1.898926,-534.1464,-9.146341,89.32927,1.001953,1.071777,4.85791,-132.1342,-69.81708,190.3049
0.0513,0.2490234,-2.325684,-0.5009766,-7.743903,39.63415,-357.5,1.775879,-1.356934,-0.3686523,502.3781,-264.3293,667.0732,0.09423828,-0.9086914,1.006836,-532.6219,99.69512,60.12195,1.697266,-1.26709,1.947754,-38.41463,-14.5122,167.7439
0.054,0.5927734,-2.52002,-0.7973633,-2.621951,41.82927,-360.1829,-0.1376953,-0.7871094,0.6552734,571.0366,-243.4146,588.2318,-0.09472656,-1.019043,0.3808594,-545.3049,140.1829,44.08537,1.064453,-3.557617,-2.231934,-19.08537,58.29268,138.7805
0.0567,0.5493164,-2.522461,-1.041016,1.219512,44.32927,-348.1707,-1.808105,-0.7900391,1.165527,761.3415,-281.4634,390.2439,-0.612793,-0.9897461,-0.2763672,-592.5,137.3171,20.30488,-0.4824219,-4.87793,-3.758789,-93.59756,247.2561,99.57317
0.0594,0.1245117,-2.325684,-1.593262,-1.890244,49.02439,-338.2317,-8.943848,-0.08984375,2.841309,861.1586,-251.2805,342.3171,-0.8583984,-0.8276367,-0.3129883,-616.9512,91.34147,14.20732,-4.991699,-6.937988,-4.037109,-163.0488,290.6098,131.5244
0.0621,-0.2133789,-2.120117,-2.060059,-17.86585,79.08537,-329.1464,-10.58936,1.237305,3.884766,652.6219,19.69512,471.5244,-1.209961,-0.2558594,0.1582031,-659.1464,-60.4878,17.7439,-6.365234,-7.49707,-2.750488,-262.7439,202.9268,277.8659
0.0648,-0.3774414,-2.125,-2.105957,-22.56098,106.7683,-334.1464,-6.578125,2.928711,2.054199,248.6585,71.03659,375.9756,-1.207031,0.004394531,0.6557617,-675.7927,-144.939,28.53659,-5.273926,-6.871582,0.5537109,-271.2805,129.0244,325.1219
0.0675,-0.5981445,-2.389648,-1.749512,-3.109756,176.4634,-354.7561,-4.172363,2.508301,1.446777,133.5366,-7.865854,274.6342,-0.5688477,0.3334961,1.452148,-687.2561,-211.2195,62.86586,-3.499512,-5.945801,1.875488,-257.2561,-2.073171,262.3781
0.0702,-0.6801758,-2.616211,-1.400391,19.26829,204.6951,-369.2073,-0.1821289,0.6621094,0.7036133,60.4878,23.35366,160.1219,-0.112793,0.465332,1.37207,-688.7195,-160.8537,73.90244,-0.2060547,-4.180664,3.586426,-215.1829,-48.04878,128.1707
0.0729,-0.3720703,-2.993164,-0.5810547,76.40244,228.4146,-398.2317,0.9575195,-0.03320313,0.2954102,44.02439,99.14635,117.6829,0.4130859,0.4326172,0.5512695,-730.9756,17.5,60.85366,1.02002,-3.500977,3.879395,-176.1585,-36.21951,75.30488
0.0756,-0.07080078,-3.055664,-0.3364258,107.0122,230.7317,-418.2317,2.133301,-0.7734375,-0.409668,-1.219512,237.0732,34.39024,0.4570313,0.137207,0.2241211,-766.6464,96.34147,42.13415,3.286133,-2.581055,3.750488,-105.6098,-3.04878,30.97561
0.0783,0.04931641,-2.848145,-0.5415039,152.6219,243.4146,-457.9268,2.292969,-1.028809,-0.7416992,-46.95122,258.0488,-21.46342,0.2905273,-0.7412109,0.07666016,-828.7195,186.0366,-1.890244,4.425781,-2.02002,3.354004,-73.84147,-5.670732,48.65854
0.081,-0.1137695,-2.630859,-0.956543,156.1585,244.5122,-464.6951,2.150391,-1.400879,-1.281738,-199.4512,149.4512,-113.2927,-0.2045898,-1.42041,0.5131836,-848.5976,198.8415,-24.7561,5.876953,-0.6191406,1.603516,-33.17073,-14.32927,70.42683
0.0837,-0.65625,-2.299805,-1.642578,122.3781,237.2561,-455.6098,1.822266,-1.727051,-1.224121,-290.4878,51.7683,-145.3659,-0.5888672,-1.632813,0.8369141,-863.2927,178.8415,-64.08537,5.544434,-0.140625,0.8398438,-36.7683,-0.7926829,57.31707
0.0864,-0.8867188,-2.260254,-1.741699,94.08537,232.8049,-432.0732,1.605957,-1.997559,-0.9946289,-409.7561,-51.34146,-110.7317,-0.9614258,-1.655273,1.197266,-858.1098,154.2683,-79.14635,4.156738,0.4082031,0.3759766,-57.62195,106.6463,56.70732
0.0891,-1.354492,-2.438477,-1.373535,100.6707,237.1951,-423.6585,0.9272461,-2.677734,-0.7421875,-378.6585,42.13415,7.865854,-0.9038086,-1.657715,1.21582,-839.7561,98.17073,-101.9512,3.430664,0.4736328,0.2788086,-66.95122,179.4512,68.23171
0.0918,-1.683594,-2.615234,-1.029785,154.0854,238.4756,-413.9024,0.4326172,-2.658203,-0.5219727,-220.9146,78.90244,185.2439,-0.3896484,-1.876953,1.170898,-829.6342,75.36585,-97.0122,1.90625,-0.04931641,-0.03710938,-92.19512,253.3537,69.87805
0.09450001,-2.154297,-3.008789,-0.1333008,197.5,228.4146,-416.0366,-0.1899414,-2.384766,0.612793,-105.4878,3.963415,205,-0.1787109,-1.919922,0.8662109,-823.2927,82.19512,-81.03659,0.1943359,-1.104004,0.3637695,-105.7317,252.5,61.34146
0.0972,-2.140625,-3.101074,0.3515625,297.2561,203.7805,-435.3049,-0.2861328,-2.176758,0.9023438,176.3415,-105.1829,152.3781,-0.3457031,-1.655762,0.04101563,-829.0854,55.06098,-63.10976,-0.5356445,-1.539551,0.7827148,-113.2317,229.7561,56.40244
0.0999,-1.952148,-3.038086,0.4951172,341.9512,201.6463,-450.6098,-0.5097656,-1.696777,0.7260742,357.3171,-51.7683,65.97561,-0.503418,-1.762695,0.04296875,-847.561,40.73171,-57.2561,-1.247559,-1.829102,1.430664,-103.7195,220.9756,58.10976
0.1026,-1.492188,-2.758789,0.4130859,413.1707,205.8537,-483.4756,-0.6240234,-1.461914,0.4990234,390.5488,25.18293,35.18293,-0.5976563,-2.125977,0.07763672,-878.9634,85.18293,-34.14634,-1.303223,-1.688477,1.580566,-73.23171,202.5,39.20732
0.1053,-1.28125,-2.569824,0.2543945,429.6951,202.1342,-495.183,-0.7392578,-0.9545898,0.04492188,378.7805,189.5732,-1.463415,-0.7519531,-2.29248,0.09228516,-882.1342,94.87805,-40.12195,-1.300781,-1.09375,1.592773,-39.7561,172.439,8.109756
0.108,-0.8803711,-2.229492,-0.01757813,428.9024,182.1342,-496.5854,-0.7626953,-0.6992188,-0.08642578,349.7561,237.6829,-14.5122,-1.294434,-3.085449,0.8022461,-866.9512,79.02439,-58.59756,-1.26709,-0.7553711,1.429199,-25.60976,153.0488,2.987805
0.1107,-0.6635742,-2.100586,-0.1171875,422.6829,165.3049,-488.2317,-0.8510742,-0.2817383,-0.09667969,283.6585,240,-34.81707,-1.57959,-3.556641,1.321289,-842.9268,74.57317,-56.82927,-0.9829102,-0.2958984,0.9550781,-11.40244,119.5732,10.97561
0.1134,-0.2954102,-1.766602,-0.3061523,410.9146,130.6707,-456.4634,-0.7583008,-0.1225586,0.03515625,255.122,208.4756,-42.5,-2.075684,-4.273926,1.953613,-754.2073,80.30488,-39.2683,-0.7802734,-0.2646484,0.7924805,-11.70732,105.9146,14.87805
0.1161,-0.1118164,-1.618652,-0.4414063,378.7195,85.06097,-401.3415,-0.4765625,0.08398438,0.3476563,213.4756,140.7927,-55.60976,-2.063965,-4.406738,1.99707,-707.2561,75.18293,-36.03659,-0.3017578,-0.480957,0.7055664,-14.5122,85.79269,10.42683
0.1188,0.3139648,-1.361816,-0.5844727,363.4146,67.98781,-374.6342,-0.1728516,0.1499023,0.4199219,198.5366,108.9634,-59.45122,-1.745605,-4.428711,1.897461,-639.5732,41.09756,-56.09756,-0.05322266,-0.5942383,0.746582,-14.20732,80.42683,2.621951
0.1215,0.4853516,-1.252441,-0.5620117,332.6219,44.02439,-332.561,-0.02001953,0.1259766,0.2758789,159.939,47.62195,-59.5122,-1.541992,-4.385742,1.959473,-611.6464,20.73171,-70.48781,0.4873047,-0.6772461,0.8388672,-9.817074,74.81708,-14.63415
0.1242,0.8144531,-1.17041,-0.402832,319.3293,33.71951,-315.9756,0.2441406,-0.02099609,-0.2666016,127.622,17.07317,-55.54878,-1.025391,-4.265137,2.336914,-549.2683,-7.560976,-87.80488,0.7666016,-0.6430664,0.8632813,-7.317073,72.80488,-19.5122
0.1269,1.067871,-1.163086,-0.1738281,301.5854,14.45122,-287.2561,0.3398438,-0.1411133,-0.5366211,25.36585,-35.79268,-40.30488,-0.3842773,-4.056152,2.63916,-509.2683,-6.280488,-93.35366,1.116699,-0.5576172,0.7919922,-4.329268,65.91463,-18.17073
0.1296,1.144531,-1.148926,-0.0703125,297.0732,11.70732,-275.4878,0.390625,-0.4467773,-0.8305664,-107.5,-51.58537,-10.85366,-0.1313477,-3.910645,2.690918,-425.8537,21.76829,-106.4634,1.055176,-0.4926758,0.5463867,-3.47561,62.62195,-11.76829
0.1323,1.131836,-1.055664,0.04541016,289.4512,12.86585,-255,0.347168,-0.6118164,-0.8051758,-170.7927,-40.85366,10.73171,0.1572266,-3.64209,2.497559,-351.7683,46.89024,-117.561,0.9501953,-0.4912109,0.4858398,-8.658537,64.32927,3.04878
0.135,1.080078,-0.9746094,0.05175781,285.6707,16.09756,-243.4756,0.2001953,-0.9516602,-0.5317383,-260.9146,6.097561,63.84146,0.1367188,-3.599121,2.36377,-319.6951,53.71951,-118.0488,0.6352539,-0.5483398,0.6591797,-14.57317,72.0122,8.414635
0.1377,0.953125,-0.7363281,-0.07861328,276.0366,28.71951,-217.439,0.1088867,-1.082031,-0.3857422,-283.6585,23.47561,83.59756,-0.2670898,-3.892578,3.796875,-228.7195,43.59756,-106.0976,0.4418945,-0.597168,0.8466797,-21.58537,95.79269,14.87805
0.1404,0.8730469,-0.5878906,-0.222168,265.4268,34.39024,-203.7195,-0.1240234,-1.309082,-0.09228516,-282.5,23.17073,98.35366,-0.2529297,-3.615234,4.237793,-176.0366,64.63415,-77.92683,-0.01025391,-0.730957,1.129883,-18.90244,103.5366,16.03658
0.1431,0.6352539,-0.2509766,-0.7114258,229.5732,35.42683,-171.2195,-0.1938477,-1.416992,0.02246094,-257.7439,13.29268,97.43903,0.3354492,-3.177734,3.718262,-96.28049,122.8049,-38.10976,-0.2158203,-0.7915039,1.138672,-4.573171,96.58537,19.69512
0.1458,0.5664063,-0.1079102,-0.9521484,202.8659,31.76829,-152.561,-0.2558594,-1.667969,0.1918945,-170.4878,-9.695122,80.67073,0.5092773,-2.999512,3.317871,-63.23171,130.4878,-37.80488,-0.4072266,-0.8588867,1,7.5,68.96342,22.37805
0.1485,0.4462891,-0.01123047,-1.212891,129.3293,18.84146,-118.5976,-0.2548828,-1.86377,0.3061523,-116.3415,-15.85366,66.46342,0.7583008,-2.630859,3.47998,-2.012195,121.2805,-51.21951,-0.4042969,-0.8657227,0.9228516,11.15854,55.73171,21.52439
0.1512,0.3383789,-0.09326172,-1.242188,45.30488,4.085366,-81.09756,-0.2416992,-1.909668,0.3300781,-9.207317,-12.37805,35.54878,0.9272461,-2.476074,3.741211,30.79268,140.061,-60.97561,-0.1953125,-0.828125,0.8999023,12.7439,40.85366,12.56098
0.1539,0.2241211,-0.3183594,-1.046387,12.07317,-2.439024,-64.87805,-0.1308594,-1.844727,0.2744141,35.4878,-2.865854,20.67073,0.9604492,-2.140625,3.67334,97.62196,250.122,-83.78049,-0.02636719,-0.8051758,0.9516602,12.56098,36.52439,6.158537
0.1566,0.1108398,-0.4697266,-0.9873047,-37.92683,-3.658537,-41.40244,-0.04394531,-1.730957,0.1943359,96.40244,23.17073,-4.390244,0.7924805,-1.910156,3.299316,124.6341,318.1707,-87.19512,0.2299805,-0.7026367,1.022949,14.93902,30.48781,-2.804878
0.1593,-0.2114258,-0.7333984,-0.9863281,-58.96342,0,-30.67073,0.1601563,-1.42627,-0.01757813,120.1829,46.82927,-24.7561,0.3564453,-1.522949,2.463867,155.3659,402.561,-85.91463,0.3212891,-0.6162109,1.041992,15.2439,26.03659,-5.121951
0.162,-0.4482422,-0.8862305,-1.086426,-99.20732,10.36585,-8.353659,0.2333984,-1.27832,-0.1201172,119.939,53.84146,-31.46342,0.1035156,-1.38916,2.128418,163.5976,411.9512,-88.23171,0.4116211,-0.4165039,0.9980469,15.60976,20.4878,-5.54878
0.1647,-0.5288086,-0.9326172,-1.133301,-117.5,16.46342,0.3048781,0.3061523,-1.051758,-0.2172852,105.5488,54.2683,-35.12195,-0.4472656,-1.239746,1.775879,175.3659,393.5366,-102.0122,0.3276367,-0.355957,0.8876953,15.54878,19.81707,-2.926829
0.1674,-0.6030273,-0.9521484,-1.129395,-147.439,27.0122,19.5122,0.3120117,-0.9716797,-0.1923828,95.30488,48.78049,-31.95122,-1.050293,-1.163086,1.664551,182.7439,374.8781,-111.9512,0.284668,-0.4033203,0.8881836,13.65854,22.62195,5.54878
0.1701,-0.5966797,-0.9404297,-1.103027,-156.7683,32.07317,28.84146,0.2431641,-0.8588867,-0.06445313,77.37805,31.40244,-20.42683,-1.340332,-1.140625,1.645508,198.4756,325.9756,-128.4146,-0.04638672,-0.3955078,0.7138672,14.45122,22.0122,7.804878
0.1728,-0.5805664,-0.9272461,-1.027344,-158.9634,42.43903,46.03659,0.2016602,-0.8261719,0.02636719,71.40244,21.95122,-13.78049,-1.74707,-1.126465,1.638672,214.3293,264.6342,-132.1342,-0.07080078,-0.4350586,0.6669922,8.47561,21.58537,12.0122
0.1755,-0.5776367,-0.9023438,-0.9921875,-155.061,46.09756,54.81707,0.1689453,-0.78125,0.2001953,63.53659,11.15854,-4.085366,-1.825195,-1.135254,1.625488,223.5366,232.2561,-128.9024,-0.04931641,-0.5454102,0.7104492,3.109756,17.9878,8.902439
0.1782,-0.5703125,-0.8452148,-0.8984375,-144.939,49.08537,74.08537,0.1064453,-0.7192383,0.2709961,61.03659,12.31707,-3.04878,-1.773926,-1.131348,1.535645,247.561,172.3781,-118.2317,-0.04541016,-0.5644531,0.734375,-0.1829268,4.695122,-0.2439024
0.1809,-0.5683594,-0.8178711,-0.8486328,-134.5122,51.7683,95.2439,0.03515625,-0.7016602,0.2568359,53.17073,14.7561,-2.378049,-1.679688,-1.100098,1.45459,260.8537,144.2073,-111.5244,-0.04199219,-0.4951172,0.6787109,1.95122,-2.743902,-6.036585
0.1836,-0.5825195,-0.8041992,-0.7016602,-129.6342,54.14634,106.8902,-0.08154297,-0.6689453,0.2124023,46.15854,12.56098,0.4268293,-1.407227,-0.9609375,1.249512,285.7927,88.35366,-99.2683,-0.02880859,-0.4584961,0.6152344,2.073171,-2.5,-6.707317
0.1863,-0.6005859,-0.7958984,-0.6259766,-121.4634,58.10976,130.7317,-0.1118164,-0.6601563,0.1904297,26.52439,4.02439,7.987805,-1.246094,-0.8754883,1.150391,295.061,63.84146,-94.20732,0.06005859,-0.4550781,0.5825195,-2.073171,-1.95122,-7.5
0.189,-0.6293945,-0.7895508,-0.5102539,-120.3049,58.90244,141.5244,-0.06933594,-0.6606445,0.1376953,2.804878,-3.109756,11.95122,-0.9018555,-0.6845703,0.9873047,305,29.81707,-86.15854,0.1381836,-0.4858398,0.6289063,-4.268293,-1.890244,-8.47561
0.1917,-0.6669922,-0.7895508,-0.3896484,-121.8902,60.30488,158.2927,-0.01611328,-0.6733398,0.08251953,-10.60976,-3.719512,11.34146,-0.7373047,-0.5961914,0.9204102,306.5854,21.09756,-83.96342,0.2373047,-0.5292969,0.7460938,-5.54878,-1.158537,-11.40244
0.1944,-0.6904297,-0.7890625,-0.3339844,-122.561,60.60976,163.1098,0.09326172,-0.7270508,-0.01611328,-41.03659,0.9756098,8.902439,-0.4448242,-0.4492188,0.8129883,308.2927,17.7439,-81.34147,0.2387695,-0.5161133,0.7734375,-4.390244,-0.7926829,-11.95122
0.1971,-0.7299805,-0.8017578,-0.2270508,-122.9878,61.64634,167.6219,0.1381836,-0.7573242,-0.05126953,-55.85366,4.085366,8.292683,-0.3330078,-0.3930664,0.7670898,308.2317,20.67073,-80.42683,0.2373047,-0.4482422,0.7998047,-1.829268,-1.036585,-12.07317
0.1998,-0.7431641,-0.8037109,-0.1865234,-121.5854,62.07317,166.7073,0.2001953,-0.8632813,-0.1030273,-80.18293,8.597561,10.12195,-0.1767578,-0.3100586,0.684082,308.0488,30.42683,-77.37805,0.2275391,-0.4213867,0.8027344,-1.036585,-0.7926829,-12.0122
0.2025,-0.7509766,-0.7617188,-0.140625,-116.6463,64.02439,161.0976,0.1977539,-0.9301758,-0.109375,-88.29269,8.414635,13.59756,-0.1240234,-0.2866211,0.6435547,307.561,36.64634,-74.39024,0.1806641,-0.4121094,0.7226563,-1.219512,2.621951,-7.804878
0.2052,-0.737793,-0.7241211,-0.1401367,-113.1098,65.60976,157.5,0.1347656,-1.086914,-0.05566406,-94.20732,1.402439,26.21951,-0.05029297,-0.2597656,0.5727539,306.3415,50,-65.36585,0.1665039,-0.5024414,0.6269531,-1.463415,2.682927,-5.54878
0.2079,-0.6933594,-0.6289063,-0.1323242,-106.7683,67.92683,149.6951,0.05664063,-1.219238,0.08740234,-90.48781,-2.743902,33.41463,-0.004882813,-0.2397461,0.5043945,305,57.9878,-59.81707,0.1704102,-0.5820313,0.605957,-4.146341,0.9756098,-3.04878
0.2106,-0.6601563,-0.5791016,-0.1367188,-102.7439,69.7561,147.1951,0.02636719,-1.258301,0.159668,-69.63415,-6.463415,42.86586,0.005859375,-0.2299805,0.4667969,300.7317,76.40244,-48.04878,0.2329102,-0.7314453,0.7348633,-6.280488,1.768293,-2.317073
0.2133,-0.5981445,-0.480957,-0.1601563,-98.29269,69.57317,144.2073,0.07470703,-1.259277,0.1665039,-53.96342,-4.207317,43.23171,-0.01611328,-0.2148438,0.4145508,297.3781,86.52439,-42.68293,0.2998047,-0.7661133,0.8808594,-6.95122,6.158537,-6.585366
0.216,-0.5761719,-0.4213867,-0.1645508,-97.2561,67.07317,146.0366,0.159668,-1.219727,0.078125,-26.03659,10.79268,30.79268,-0.04101563,-0.2133789,0.4008789,288.2927,105.061,-32.56098,0.3935547,-0.6586914,1.083496,0.2439024,5.243903,-14.02439
0.2187,-0.519043,-0.3139648,-0.1787109,-97.07317,67.0122,148.4146,0.3071289,-1.14502,-0.1811523,-15.67073,29.93903,8.109756,-0.1181641,-0.2294922,0.434082,279.8781,119.5732,-23.78049,0.390625,-0.4936523,1.097656,5.792683,2.256098,-15.97561
0.2214,-0.4931641,-0.2783203,-0.1884766,-101.4634,63.53659,152.8049,0.3364258,-1.129883,-0.2949219,-17.9878,35.79268,0.7317073,-0.168457,-0.2431641,0.465332,276.5854,124.3902,-19.63415,0.3081055,-0.140625,0.9472656,12.86585,-0.6707317,-12.07317
0.2241,-0.4853516,-0.2202148,-0.2114258,-105.3049,63.04878,155.3049,0.277832,-1.156738,-0.4208984,-29.87805,31.21951,1.95122,-0.2836914,-0.2788086,0.5551758,274.0854,130.061,-11.28049,0.2719727,-0.03076172,0.8325195,11.95122,-0.7926829,-7.5
0.2268,-0.4707031,-0.2026367,-0.2573242,-112.3781,61.46342,160.4878,0.2084961,-1.191406,-0.4052734,-35,21.03659,10.42683,-0.3461914,-0.2861328,0.5957031,274.2073,130.8537,-7.5,0.2641602,-0.1210938,0.7016602,4.878049,5.97561,3.780488
0.2295,-0.4985352,-0.1713867,-0.3066406,-117.0732,62.07317,162.2561,0.07910156,-1.245605,-0.2675781,-31.40244,-2.743902,32.92683,-0.4638672,-0.2836914,0.6538086,277.3781,127.7439,-0.6097561,0.2612305,-0.3022461,0.6782227,0.3658537,9.085366,8.353659
0.2322,-0.5595703,-0.1289063,-0.4213867,-130.2439,64.5122,169.6951,0.07275391,-1.245117,-0.2011719,-23.53659,-9.695122,40.67073,-0.519043,-0.2729492,0.6757813,279.3903,123.4756,2.317073,0.3588867,-0.671875,0.7587891,-4.390244,0.6707317,8.719512
0.2349,-0.5942383,-0.1367188,-0.4799805,-138.2927,65.12196,174.4512,0.1010742,-1.216309,-0.1430664,-2.073171,-6.646342,39.32927,-0.6152344,-0.237793,0.7197266,284.3903,110,8.536586,0.3999023,-0.7597656,0.8486328,-2.378049,-2.743902,6.341464
0.2376,-0.6889648,-0.1826172,-0.5717773,-158.4146,60.91463,185.061,0.08935547,-1.201172,-0.1542969,6.707317,-0.3048781,33.29268,-0.6430664,-0.2207031,0.7485352,286.6464,101.8293,11.52439,0.3452148,-0.7133789,0.8735352,6.829268,2.317073,4.939024
0.2403,-0.7138672,-0.2026367,-0.5927734,-168.2317,56.34146,191.1585,-0.0390625,-1.185547,-0.1806641,16.64634,6.829268,22.2561,-0.6708984,-0.1899414,0.8071289,292.0122,86.89024,17.43902,0.1025391,-0.5415039,0.6708984,10.18293,7.317073,8.658537
0.243,-0.7431641,-0.2724609,-0.6333008,-183.5976,47.68293,201.7683,-0.2167969,-1.171387,-0.09619141,19.14634,5.609756,20.42683,-0.6660156,-0.1821289,0.8349609,295.1219,80.18293,19.81707,0.046875,-0.4941406,0.609375,11.58537,7.317073,17.68293
0.2457,-0.7587891,-0.3110352,-0.644043,-194.3293,41.64634,210,-0.2407227,-1.14502,-0.05712891,26.82927,-1.097561,21.95122,-0.640625,-0.1865234,0.8920898,301.6464,68.17073,25.73171,0.1303711,-0.527832,0.6347656,8.414635,5.243903,18.71951
0.2484,-0.7680664,-0.3769531,-0.6650391,-197.3171,40.06098,213.2317,-0.1210938,-1.032715,-0.0546875,31.58537,-2.073171,20.42683,-0.5805664,-0.222168,0.9760742,305.4268,63.04878,28.47561,0.2241211,-0.5292969,0.6748047,3.536585,-1.707317,12.2561
0.2511,-0.7602539,-0.3999023,-0.6738281,-199.7561,40.12195,218.4756,-0.01318359,-0.9663086,-0.1015625,37.5,6.219512,8.47561,-0.543457,-0.2524414,1.01709,315.1219,55.06098,34.45122,0.34375,-0.3994141,0.8188477,3.414634,-6.768293,7.317073
0.2538,-0.7265625,-0.4326172,-0.6748047,-198.6585,41.7683,220.8537,0.1699219,-0.8745117,-0.2460938,32.68293,18.59756,-7.560976,-0.4555664,-0.3344727,1.094727,320.7317,52.5,37.92683,0.3652344,-0.293457,0.8554688,6.280488,-8.353659,4.146341
0.2565,-0.6826172,-0.4375,-0.6694336,-196.1585,46.52439,226.0976,0.2226563,-0.8623047,-0.3110352,26.09756,20.73171,-11.95122,-0.4121094,-0.3774414,1.117188,333.2317,50.67073,44.32927,0.3017578,-0.1166992,0.765625,9.207317,-2.195122,10.18293
0.2592,-0.6567383,-0.4389648,-0.6567383,-195.1829,49.32927,229.2073,0.2070313,-0.9111328,-0.3310547,10.12195,9.512196,-6.463415,-0.3183594,-0.4726563,1.144043,346.9512,53.35366,52.2561,0.2397461,-0.112793,0.7226563,8.170732,1.402439,15.91463
0.2619,-0.5922852,-0.4404297,-0.6308594,-195.1829,53.47561,235.8537,0.1787109,-0.9487305,-0.2758789,4.268293,-0.9146342,2.134146,-0.277832,-0.5175781,1.150879,353.9634,55.91463,56.21951,0.1782227,-0.3339844,0.6738281,5,7.865854,24.87805
0.2646,-0.5712891,-0.4433594,-0.6020508,-196.7073,55,239.3293,0.1420898,-1.018555,-0.1176758,2.560976,-16.40244,20.12195,-0.1894531,-0.6069336,1.168945,367.1951,63.53659,65.48781,0.1542969,-0.4526367,0.6176758,3.780488,6.219512,26.40244
0.2673,-0.5263672,-0.4907227,-0.5205078,-201.4634,58.90244,246.0366,0.1357422,-1.038574,-0.03857422,6.463415,-18.96342,25.85366,-0.1474609,-0.6533203,1.172363,374.0854,69.39024,70.2439,0.3354492,-0.6557617,0.809082,3.04878,2.987805,20.73171
0.27,-0.5063477,-0.5141602,-0.484375,-204.4512,60.30488,248.5976,0.1132813,-1.061035,0.046875,18.65854,-15.18293,28.10976,-0.05810547,-0.7592773,1.148926,387.9268,85.2439,80.60976,0.296875,-0.6831055,0.8457031,8.04878,7.317073,16.58537
0.2727,-0.4868164,-0.5400391,-0.4150391,-209.6951,66.34146,253.7805,0.05712891,-1.071289,0.0234375,22.7439,-11.15854,26.21951,-0.02587891,-0.8081055,1.117676,394.7561,94.32927,85.60976,0.2016602,-0.5751953,0.7192383,10.2439,5.304878,20
0.2754,-0.4785156,-0.5532227,-0.3989258,-214.2073,68.78049,256.0976,0.02001953,-1.069824,0.004394531,24.5122,-6.829268,22.5,0.02099609,-0.9033203,1.029297,406.3415,111.5244,94.63415,0.1826172,-0.5019531,0.7236328,9.573171,4.329268,22.0122
0.2781,-0.4829102,-0.5625,-0.3417969,-227.7439,72.68293,260.6707,-0.002441406,-1.065918,-0.01953125,23.29268,-6.95122,21.89024,0.03369141,-0.9433594,0.972168,411.7073,118.5976,99.20732,0.1723633,-0.4433594,0.78125,8.353659,6.829268,24.26829
0.2808,-0.484375,-0.5810547,-0.3076172,-242.8659,76.34147,266.4024,0.01318359,-1.054688,-0.03369141,19.32927,-6.52439,21.03659,0.04101563,-1.012207,0.8686523,420.3659,127.6829,108.5366,0.2080078,-0.4541016,0.7514648,8.231708,6.890244,25.2439
0.2835,-0.4907227,-0.6259766,-0.2558594,-250.7317,77.80488,268.5366,0.06396484,-1.021484,-0.07470703,14.5122,-2.073171,17.92683,0.04052734,-1.035156,0.8129883,423.8415,130.4268,112.9878,0.2680664,-0.4643555,0.7900391,8.414635,5.365854,22.98781
0.2862,-0.5004883,-0.6616211,-0.2333984,-267.0122,79.32927,271.3415,0.09912109,-1.016602,-0.1020508,12.13415,1.646341,15.60976,0.03710938,-1.046875,0.690918,428.6585,132.7439,121.4024,0.3564453,-0.4833984,0.8217773,8.47561,4.329268,20.79268
0.2889,-0.5371094,-0.7446289,-0.1967773,-274.8171,79.14635,272.2561,0.1206055,-1.04541,-0.1582031,5.182927,5.182927,14.08537,0.03076172,-1.03418,0.6210938,430.2439,132.8049,124.6951,0.3530273,-0.4907227,0.8051758,10,7.012195,22.86585
0.2916,-0.5712891,-0.8457031,-0.1655273,-289.8171,77.19512,274.2073,0.1079102,-1.073242,-0.1679688,2.317073,3.841464,15.54878,0.009277344,-0.9794922,0.4960938,429.8781,129.2073,129.3293,0.2797852,-0.5380859,0.8173828,12.19512,13.78049,30.42683
0.2943,-0.5849609,-0.9013672,-0.1547852,-296.3415,75.48781,274.5732,0.08789063,-1.130371,-0.137207,-1.280488,-0.3658537,22.07317,-0.01953125,-0.8979492,0.3945313,428.4146,125.7927,131.0976,0.2446289,-0.574707,0.7988281,13.04878,17.07317,33.84146
0.297,-0.5957031,-1.008301,-0.1450195,-306.0366,72.07317,273.9024,0.08203125,-1.146973,-0.1103516,-0.2439024,-1.463415,24.45122,-0.03369141,-0.8530273,0.3579102,423.1707,116.1585,132.6829,0.2236328,-0.5922852,0.7470703,14.32927,17.9878,34.20732
0.2997,-0.5957031,-1.065918,-0.1499023,-309.2683,70.2439,272.6219,0.09814453,-1.164063,-0.05224609,6.707317,2.012195,24.02439,-0.05615234,-0.7661133,0.3061523,415.1219,104.6341,133.0488,0.2436523,-0.5683594,0.7773438,14.32927,16.28049,31.95122
0.3024,-0.5957031,-1.175781,-0.1625977,-312.0732,65.67073,269.3293,0.1279297,-1.148926,-0.02246094,12.37805,6.707317,21.34146,-0.06152344,-0.7202148,0.3027344,410.6707,97.92683,132.1951,0.2641602,-0.5048828,0.8613281,15.73171,15.54878,28.84146
0.3051,-0.5878906,-1.226074,-0.1708984,-311.8293,63.78049,266.8293,0.1264648,-1.138184,-0.03955078,23.71951,16.28049,13.17073,-0.05175781,-0.6357422,0.3295898,401.2195,84.14635,129.2683,0.2485352,-0.4511719,0.8149414,17.62195,16.58537,29.32927
0.3078,-0.5683594,-1.324219,-0.1733398,-308.7195,60.18293,261.9512,0.046875,-1.130859,-0.09472656,27.80488,17.2561,10.60976,-0.04150391,-0.6069336,0.3642578,396.4024,77.80488,127.561,0.1757813,-0.3901367,0.7055664,17.5,19.63415,34.02439
0.3105,-0.5512695,-1.367188,-0.1679688,-301.2195,57.5,255.9146,-0.001953125,-1.12793,-0.1074219,30.91463,9.02439,13.47561,0.00390625,-0.5722656,0.4584961,387.6829,68.35366,123.0488,0.137207,-0.4189453,0.6704102,16.03658,21.64634,36.95122
0.3132,-0.5161133,-1.434082,-0.1533203,-295.3049,56.7683,252.6829,-0.1118164,-1.126465,-0.08154297,32.62195,-4.02439,23.59756,0.02978516,-0.565918,0.5107422,383.7195,65.85366,120.2439,0.1113281,-0.5737305,0.5952148,11.46342,22.43902,42.31707
0.3159,-0.5043945,-1.45459,-0.144043,-282.3171,55.79268,246.7073,-0.1508789,-1.105469,-0.04833984,34.93903,-7.865854,27.92683,0.08203125,-0.581543,0.6103516,377.0732,64.20732,114.8781,0.1782227,-0.75,0.6206055,10.30488,22.07317,41.89024
0.3186,-0.487793,-1.466797,-0.1259766,-275.4878,55.30488,244.6951,-0.1811523,-1.03418,0.008789063,42.68293,-5.060976,29.39025,0.1049805,-0.5991211,0.6640625,374.0244,65.2439,112.0732,0.2041016,-0.777832,0.659668,9.329268,16.64634,35.91463
0.3213,-0.4853516,-1.442871,-0.1108398,-262.8658,55.42683,241.8902,-0.1699219,-0.9951172,0.02587891,46.70732,0.3658537,26.15854,0.1318359,-0.6635742,0.7861328,368.5366,68.41463,107.9878,0.1870117,-0.6362305,0.7397461,10.12195,15.30488,32.5
0.324,-0.4770508,-1.425293,-0.1098633,-258.0488,55.42683,241.2195,-0.09667969,-0.9355469,0.02294922,51.28049,13.53659,14.7561,0.1381836,-0.7016602,0.8486328,366.2805,70.97561,106.2195,0.1499023,-0.4936523,0.7871094,12.86585,13.04878,28.71951
0.3267,-0.4902344,-1.371094,-0.1069336,-251.8902,55.42683,241.7683,-0.05859375,-0.918457,0.004394531,50.54878,17.13415,8.719512,0.1289063,-0.7993164,0.9707031,364.1464,77.98781,104.2073,0.04492188,-0.2470703,0.7905273,12.86585,11.89024,27.5
0.3294,-0.4990234,-1.349609,-0.109375,-251.2805,55.36586,242.3781,-0.000488281,-0.9321289,-0.03125,41.7683,11.52439,4.02439,0.112793,-0.8427734,1.027344,363.9634,82.43903,103.7195,0.002441406,-0.1972656,0.7324219,8.780488,9.573171,28.47561
0.3321,-0.5258789,-1.31543,-0.1030273,-254.6951,55,245.061,-0.004882813,-0.9560547,-0.05371094,34.87805,2.560976,6.280488,0.07177734,-0.9404297,1.101074,364.2683,91.34147,104.7561,0.002929688,-0.3037109,0.706543,0.7317073,6.280488,30.42683
0.3348,-0.5390625,-1.307617,-0.09228516,-258.1098,54.5122,246.6463,0.00390625,-0.9643555,-0.05664063,21.52439,-18.29268,18.17073,0.005859375,-1.036621,1.147949,364.6951,95.67073,105.7927,0.06640625,-0.4155273,0.7397461,-2.195122,3.536585,29.45122
0.3375,-0.5678711,-1.316895,-0.06103516,-266.7073,52.31707,249.939,0.08447266,-0.9682617,-0.08886719,15.54878,-24.87805,25.2439,-0.02685547,-1.072754,1.166016,366.1585,103.0488,109.1463,0.1870117,-0.515625,0.7900391,-3.536585,-1.707317,24.20732
0.3402,-0.5800781,-1.32666,-0.046875,-272.0732,50.54878,252.1342,0.09960938,-0.9814453,-0.1401367,4.573171,-28.10976,34.08537,-0.09863281,-1.137695,1.194824,368.1707,105.7317,113.9024,0.2026367,-0.4726563,0.8115234,-2.5,-4.085366,22.62195
0.3429,-0.6235352,-1.369629,-0.02050781,-284.0854,46.21951,256.3415,0.1264648,-1.03418,-0.1821289,-8.47561,-31.58537,41.46342,-0.137207,-1.172363,1.202637,368.7805,105.4268,117.1341,0.1835938,-0.3173828,0.8295898,-1.829268,-5.121951,25.30488
0.3456,-0.6362305,-1.396973,-0.008789063,-295.6098,40.97561,260,0.09667969,-1.065918,-0.1713867,-13.04878,-34.39024,45.18293,-0.1948242,-1.212402,1.216309,370.4878,102.3781,123.7805,0.1508789,-0.2973633,0.7749023,-3.109756,-3.231707,28.96342
0.3483,-0.6645508,-1.481445,0.01318359,-301.5854,38.04878,261.8903,-0.02294922,-1.154785,-0.08105469,-15.48781,-44.57317,53.65854,-0.2246094,-1.230469,1.224609,371.2805,99.93903,127.2561,0.06738281,-0.4638672,0.6801758,-8.841464,0.4878049,36.70732
0.351,-0.6723633,-1.527832,0.0234375,-311.2805,31.70732,264.4512,-0.08496094,-1.196777,-0.002929688,-11.03659,-48.90244,57.56098,-0.2592773,-1.263184,1.240234,372.561,94.20732,134.0244,0.05957031,-0.7514648,0.7011719,-11.76829,0.3048781,37.7439
0.3537,-0.6835938,-1.627441,0.05273438,-315.3049,28.65854,265.061,-0.1513672,-1.249512,0.1459961,6.768293,-46.28049,59.69512,-0.2714844,-1.276367,1.247559,372.8659,91.03659,137.5,0.08398438,-0.8291016,0.7421875,-12.98781,-4.390244,33.78049
0.3564,-0.6899414,-1.734863,0.09423828,-320.6707,22.37805,266.2805,-0.1416016,-1.251465,0.1899414,18.78049,-38.71951,57.07317,-0.2841797,-1.298828,1.257813,373.5366,85.12196,145.061,0.1552734,-0.7407227,0.8613281,-11.21951,-7.560976,29.02439
0.3591,-0.6835938,-1.784668,0.1176758,-321.4024,19.08537,266.9512,-0.08251953,-1.202148,0.1625977,39.20732,-21.89024,44.63415,-0.2807617,-1.307617,1.265625,373.4146,82.7439,148.9634,0.1650391,-0.6137695,0.8916016,-7.012195,-14.02439,21.76829
0.3618,-0.668457,-1.881836,0.1547852,-321.6464,12.43902,266.8293,-0.07617188,-1.181641,0.1162109,44.87805,-19.14634,38.41463,-0.2724609,-1.32666,1.275391,372.5,79.32927,156.1585,0.1567383,-0.3881836,0.7998047,-6.219512,-14.39024,22.62195
0.3645,-0.6640625,-1.924805,0.1757813,-321.0976,9.268292,266.8903,-0.08544922,-1.161621,0.04248047,45.91463,-26.82927,34.7561,-0.2739258,-1.344238,1.27002,371.5854,77.98781,159.6342,0.1508789,-0.3666992,0.7456055,-10.73171,-10.42683,27.92683
0.3672,-0.6386719,-1.995605,0.2104492,-319.2073,3.170732,266.8903,0.01171875,-1.154297,0.04931641,43.47561,-32.68293,35.85366,-0.2729492,-1.381348,1.271484,367.9268,75.06097,167.0732,0.1518555,-0.4589844,0.8149414,-17.37805,-9.02439,27.80488
0.3699,-0.6240234,-2.026367,0.2265625,-318.2927,0.1219512,267.3171,0.1030273,-1.131836,0.04833984,37.56098,-35,36.28049,-0.2724609,-1.402832,1.270996,366.2195,74.08537,170.9756,0.1616211,-0.4819336,0.8745117,-18.84146,-11.40244,25.67073
0.3726,-0.5854492,-2.085938,0.2470703,-318.3537,-6.158537,268.2317,0.2338867,-1.068848,-0.04345703,34.5122,-31.46342,34.32927,-0.2651367,-1.443848,1.249023,361.5244,71.34147,177.8049,0.1875,-0.3554688,0.9375,-18.78049,-17.86585,20.30488
0.3753,-0.5698242,-2.110352,0.2587891,-318.8415,-9.634147,268.8415,0.2670898,-1.053711,-0.1083984,24.08537,-28.78049,31.46342,-0.2700195,-1.479004,1.225586,358.8415,70,181.0366,0.2041016,-0.2519531,0.9433594,-19.20732,-21.03659,19.5122
0.378,-0.5180664,-2.166504,0.2841797,-320.6098,-17.13415,270.061,0.2568359,-1.063965,-0.1748047,9.634147,-37.07317,37.86586,-0.2758789,-1.496094,1.209473,352.1951,65.42683,186.2195,0.152832,-0.1791992,0.8486328,-23.71951,-22.92683,24.20732
0.3807,-0.4912109,-2.199219,0.2939453,-323.4756,-24.57317,270.1829,0.2109375,-1.09668,-0.1845703,3.109756,-44.20732,44.81707,-0.3027344,-1.542969,1.215332,349.0244,62.5,188.4146,0.1230469,-0.2583008,0.7646484,-28.41463,-21.95122,27.31707
0.3834,-0.4277344,-2.268066,0.315918,-324.8781,-28.65854,269.8171,0.07324219,-1.160645,-0.09521484,-4.390244,-56.34146,63.71951,-0.3120117,-1.569824,1.216797,341.3415,57.37805,193.7805,0.05419922,-0.5249023,0.7055664,-37.2561,-23.47561,30.97561
0.3861,-0.3583984,-2.345703,0.3447266,-326.8903,-35.91463,268.5366,0.07910156,-1.092285,0.02001953,-1.52439,-50.73171,71.40244,-0.3173828,-1.633301,1.229004,333.6585,52.80488,198.7195,-0.1201172,-0.5273438,0.8217773,-39.32927,-30.85366,32.37805
0.3888,-0.315918,-2.385254,0.3642578,-327.3781,-39.63415,267.5,-0.3525391,-0.8085938,-0.4150391,4.329268,-39.20732,74.7561,-0.3134766,-1.67627,1.239258,330.2439,50.79268,201.1585,0.07177734,-0.5058594,0.8085938,-40.85366,-55.4878,25.2439
0.3915,-0.2265625,-2.464355,0.3945313,-326.5244,-46.58537,264.6342,-0.5219727,-0.7792969,-0.5722656,-5.487805,-61.89024,77.0122,-0.2978516,-1.757813,1.259277,323.5366,47.31707,204.8781,0.4921875,-0.6152344,0.7294922,-44.63415,-56.95122,16.76829
0.3942,-0.1782227,-2.500488,0.4169922,-325.4878,-49.63415,263.2317,-0.2758789,-1.051758,-0.2026367,-20.97561,-74.81708,77.43903,-0.2919922,-1.800293,1.272461,320.3659,45.30488,206.7683,0.609375,-0.6069336,0.7529297,-47.07317,-48.84146,16.03658
0.3969,-0.08496094,-2.559082,0.4628906,-320.9756,-54.87805,260.6707,0.01660156,-1.52832,0.1728516,-22.86585,-53.41463,73.41463,-0.2739258,-1.907715,1.316895,315.4268,41.15854,209.2073,0.4541016,-0.5302734,0.7895508,-47.62195,-40.85366,23.10976
0.3996,-0.03662109,-2.583984,0.4873047,-318.1707,-56.89024,259.5732,0.1396484,-1.752441,0.3227539,-25.97561,-16.09756,60.60976,-0.2587891,-1.964844,1.340332,313.1098,39.63415,210.4268,0.2661133,-0.4970703,0.7978516,-52.56098,-21.52439,40.06098
0.4023,0.05419922,-2.618164,0.5317383,-311.0976,-59.93903,257.6219,0.4067383,-2.008789,0.578125,-24.5122,-10.85366,54.45122,-0.2265625,-2.083984,1.383789,310.061,37.37805,213.1707,-0.05664063,-0.425293,0.8027344,-57.9878,-17.92683,39.87805
0.405,0.09570313,-2.633789,0.559082,-307.3781,-60.79268,257.439,0.4848633,-2.019531,0.6049805,-5.182927,-15.2439,46.70732,-0.2119141,-2.148438,1.409668,309.3293,36.40244,214.0854,-0.121582,-0.3974609,0.8222656,-60.54878,-21.58537,33.96342
0.4077,0.1791992,-2.647949,0.625,-299.5122,-61.95122,256.7683,0.4702148,-1.822754,0.4189453,26.95122,-28.78049,54.2683,-0.1699219,-2.274902,1.430176,307.8049,35.54878,216.8902,-0.06640625,-0.3891602,0.8076172,-65.06097,-29.26829,24.39024
0.4104,0.2211914,-2.655762,0.6601563,-291.4634,-60.97561,257.0732,0.3964844,-1.654785,0.284668,42.2561,-38.23171,62.07317,-0.1459961,-2.342773,1.427734,307.6829,35.30488,217.9268,0.008789063,-0.4248047,0.7617188,-67.0122,-31.09756,22.07317
0.4131,0.2915039,-2.658691,0.7402344,-287.6829,-60.06098,257.2561,0.1674805,-1.291504,0.07421875,68.04878,-52.0122,78.71951,-0.0859375,-2.456055,1.401367,306.9512,33.35366,220.4878,0.1064453,-0.5864258,0.6791992,-72.5,-29.7561,23.90244
0.4158,0.3251953,-2.661133,0.7827148,-281.5854,-57.92683,259.0244,0.04980469,-1.139648,0.01367188,77.80488,-52.31707,85,-0.02001953,-2.561035,1.361328,306.4024,31.95122,221.7073,0.1416016,-0.6611328,0.6835938,-75.06097,-28.78049,24.93903
0.4185,0.3916016,-2.680664,0.8818359,-278.7805,-56.95122,259.5732,-0.09130859,-0.9462891,-0.04882813,88.90244,-36.09756,90.91463,0.01806641,-2.609375,1.33252,305.4268,28.35366,222.622,0.2036133,-0.684082,0.8256836,-76.52439,-27.68293,23.41463
0.4212,0.4599609,-2.723145,0.9990234,-274.0854,-54.87805,260.7927,-0.08691406,-0.8959961,-0.04541016,89.81708,-23.59756,90.48781,0.1025391,-2.682617,1.256836,304.8171,26.64634,222.9268,0.2124023,-0.6069336,0.8935547,-75.30488,-28.65854,21.09756
0.4239,0.4912109,-2.750977,1.0625,-271.9512,-54.20732,260.8537,0.01171875,-0.8901367,0.005859375,84.93903,-6.341464,83.04878,0.1464844,-2.712891,1.215332,302.6829,23.71951,221.8902,0.1928711,-0.3476563,0.8803711,-71.95122,-29.45122,18.78049
0.4266,0.5795898,-2.824219,1.195801,-267.8049,-52.7439,260.5488,0.1269531,-0.9643555,0.1303711,80.30488,-5.97561,77.98781,0.2319336,-2.772949,1.129395,299.0854,20.97561,220.1829,0.1298828,-0.1967773,0.7670898,-73.04878,-29.45122,18.90244
0.4293,0.6323242,-2.865723,1.263672,-265.5488,-52.37805,259.7561,0.1474609,-1.01709,0.2080078,71.28049,-16.52439,70.54878,0.2758789,-2.804199,1.078125,297.1951,20.06098,218.7805,0.08154297,-0.2348633,0.7250977,-79.39024,-26.58537,21.58537
0.432,0.7553711,-2.956055,1.396973,-261.7073,-52.7439,257.9878,0.1098633,-1.12207,0.3530273,67.98781,-24.32927,70.2439,0.3662109,-2.879395,0.9516602,292.2561,20.06098,215.6098,0.01660156,-0.5053711,0.6928711,-83.84147,-25,24.02439
0.4347,0.8349609,-3.000488,1.462402,-260.1829,-53.53659,256.7073,0.08447266,-1.160645,0.409668,65.60976,-32.5,77.86585,0.4116211,-2.922363,0.8774414,289.1464,20.97561,213.6585,0.03759766,-0.6591797,0.7148438,-91.09756,-24.93903,23.71951
0.4374,1.015137,-3.099609,1.578613,-255.3659,-56.15854,254.1463,0.09277344,-1.185547,0.4350586,64.69512,-25.54878,91.28049,0.4848633,-3.020996,0.7050781,281.2805,24.81707,209.0854,0.1113281,-0.824707,0.8588867,-92.43903,-26.15854,20
0.4401,1.118164,-3.136719,1.634277,-252.3781,-57.80488,252.622,0.1513672,-1.165527,0.409668,63.47561,-20.42683,95.30488,0.5136719,-3.077148,0.6113281,276.6464,26.95122,206.4025,0.1557617,-0.7851563,0.9360352,-90.85366,-27.98781,9.939025
0.4428,1.343262,-3.209961,1.732422,-244.2073,-60.91463,249.3902,0.2900391,-1.119629,0.3046875,56.82927,-13.65854,97.98781,0.5444336,-3.204102,0.4150391,266.3415,31.64634,198.7805,0.1850586,-0.4951172,0.972168,-86.7683,-29.5122,1.646341
0.4455,1.46582,-3.233887,1.769043,-232.7439,-64.87805,246.3415,0.3530273,-1.109863,0.2636719,51.28049,-13.23171,97.19512,0.5498047,-3.270508,0.3071289,260.7927,33.84146,194.6951,0.1362305,-0.3310547,0.925293,-87.07317,-29.08537,0.4268293
0.4482,1.745605,-3.23877,1.834473,-225.6098,-66.89024,244.5122,0.3857422,-1.152832,0.2485352,39.02439,-19.14634,95.48781,0.5185547,-3.414063,0.09179688,249.2683,38.17073,184.1463,0.03027344,-0.1606445,0.7514648,-94.63415,-25.85366,4.45122
0.4509,1.888672,-3.218262,1.855957,-209.0244,-70.12196,240.122,0.3369141,-1.208496,0.2753906,33.47561,-23.65854,96.95123,0.496582,-3.483398,-0.004882813,243.4146,40,177.9878,0.00390625,-0.2138672,0.6914063,-101.7073,-24.39024,6.95122
0.4536,2.189453,-3.117188,1.881348,-199.5122,-71.34147,237.7439,0.1743164,-1.361328,0.3813477,26.64634,-26.03659,109.0244,0.4155273,-3.61084,-0.2275391,233.2317,43.65854,163.1707,0.08007813,-0.5092773,0.722168,-116.7683,-23.29268,8.597561
0.4563,2.529785,-2.933594,1.885742,-178.1098,-72.2561,229.8171,0.1123047,-1.471191,0.4208984,25.54878,-20.85366,118.1707,0.3496094,-3.669434,-0.3725586,228.1098,44.93903,154.6342,0.1552734,-0.659668,0.8046875,-121.7683,-23.53659,5.97561
0.459,2.683594,-2.817871,1.856934,-166.4634,-71.70732,224.5122,0.1557617,-1.500977,0.3911133,25.30488,-7.378049,131.6463,0.1972656,-3.784668,-0.6796875,216.0976,45.2439,136.4634,0.2797852,-0.7490234,0.9672852,-124.8171,-24.87805,-1.585366
0.4617,3.036621,-2.55957,1.811035,-143.5976,-68.84147,211.8293,0.2392578,-1.530762,0.253418,24.20732,-4.085366,133.5976,-0.002441406,-3.922363,-0.9799805,209.0854,39.7561,127.0122,0.2851563,-0.6606445,0.9667969,-124.3293,-24.7561,-4.634146
0.4644,3.192871,-2.433105,1.788086,-131.7683,-65.91463,203.4146,0.2236328,-1.567871,0.203125,16.95122,-8.47561,134.3902,-0.08740234,-3.990723,-1.099609,196.0366,21.28049,109.3902,0.140625,-0.4047852,0.8217773,-128.9024,-21.82927,-2.439024
0.4671,3.459961,-2.219238,1.745117,-108.5366,-57.43903,185.4878,0.1767578,-1.678711,0.2304688,9.817074,-16.82927,139.6951,-0.1987305,-4.07373,-1.301758,187.6219,-4.085366,91.40244,0.04931641,-0.3364258,0.6811523,-135.6707,-19.57317,1.585366
0.4698,3.556641,-2.132813,1.730469,-97.68293,-53.29268,176.0366,0.1289063,-1.743652,0.277832,9.268292,-16.70732,143.5976,-0.2368164,-4.081055,-1.416992,185.2439,-19.57317,81.82927,0.06103516,-0.4082031,0.7016602,-154.5732,-18.47561,6.097561
0.4725,3.666992,-2.006348,1.730957,-78.53659,-43.65854,157.2561,0.04296875,-1.84668,0.3217773,15.2439,-6.95122,153.9634,-0.2612305,-4.012207,-1.648926,178.6585,-54.81707,63.65854,0.1171875,-0.6030273,0.7851563,-162.9268,-19.32927,6.52439
0.4752,3.695313,-1.956055,1.750977,-61.09756,-33.59756,138.5976,0.0546875,-1.866211,0.3066406,20.12195,-0.9146342,158.4756,-0.2226563,-3.941406,-1.760742,174.939,-71.58537,55.06098,0.1538086,-0.6660156,0.8540039,-174.8781,-22.43902,6.036585
0.4779,3.72998,-1.861328,1.821777,-52.43903,-29.26829,128.3537,0.1582031,-1.862793,0.2387695,31.15854,7.439024,161.1585,-0.06738281,-3.725586,-1.988281,164.1463,-95.12196,38.35366,0.2456055,-0.6303711,0.8964844,-183.3537,-21.03659,4.329268
0.4806,3.710938,-1.818848,1.862793,-36.34146,-20.54878,104.3902,0.2451172,-1.834961,0.1821289,36.15854,12.07317,160.4268,0.01757813,-3.596191,-2.118652,156.0366,-101.7683,30.97561,0.3359375,-0.5522461,0.9379883,-189.6342,-21.76829,1.158537
0.4833,3.620605,-1.721191,1.946289,-29.20732,-17.07317,91.64635,0.4111328,-1.739258,0.03662109,41.7683,18.10976,156.6463,0.1918945,-3.356934,-2.314941,131.5854,-106.4024,20.36585,0.3769531,-0.3383789,1.006836,-199.0854,-23.47561,-2.987805
0.486,3.492676,-1.622559,2.08252,-17.07317,-13.35366,64.81708,0.4350586,-1.712891,-0.02539063,41.70732,15.60976,156.0976,0.2749023,-3.254883,-2.383789,116.1585,-102.622,17.31707,0.3198242,-0.237793,0.9199219,-203.0488,-23.23171,-0.6707317
0.4887,3.428711,-1.571289,2.163574,-11.70732,-13.41463,50.91463,0.4047852,-1.731445,0.004882813,42.92683,4.146341,160.3049,0.4179688,-3.11377,-2.47998,81.03659,-82.92683,15.67073,0.2382813,-0.159668,0.7006836,-218.5976,-20.12195,7.560976
0.4914,3.275879,-1.463379,2.328125,-1.646341,-16.70732,23.23171,0.3344727,-1.812012,0.1557617,46.52439,1.768293,165.2439,0.4609375,-3.075195,-2.508301,61.7683,-69.14634,16.89024,0.1987305,-0.2075195,0.6660156,-229.6951,-18.71951,10.79268
0.4941,3.189453,-1.411621,2.402344,2.073171,-20.06098,10.30488,0.3012695,-1.835938,0.2177734,62.07317,12.0122,177.6219,0.4902344,-3.064453,-2.532715,22.07317,-37.92683,20.79268,0.1630859,-0.3886719,0.7119141,-250.8537,-19.5122,14.45122
0.4968,3.027832,-1.321777,2.543945,7.134147,-30.30488,-12.86585,0.2753906,-1.833984,0.277832,71.64634,20.18293,183.1098,0.4726563,-3.087891,-2.527344,2.195122,-23.53659,23.78049,0.1679688,-0.4711914,0.7597656,-259.2073,-20.54878,14.63415
0.4995,2.938965,-1.291016,2.596191,8.902439,-37.80488,-22.68293,0.2587891,-1.818848,0.2841797,90.18293,32.2561,190,0.3579102,-3.185059,-2.477051,-36.03659,1.341463,32.5,0.1782227,-0.5795898,0.7944336,-272.439,-22.2561,14.26829
0.5022,2.77002,-1.26709,2.691406,10.60976,-54.45122,-39.20732,0.2583008,-1.778809,0.2939453,103.2317,36.46342,195.3659,0.1557617,-3.317871,-2.401855,-53.71951,10.12195,37.43903,0.2001953,-0.6235352,0.7475586,-278.4146,-22.68293,13.78049
0.5049,2.700684,-1.257813,2.720703,11.82927,-64.63415,-45.91463,0.2602539,-1.758789,0.2885742,107.3781,36.64634,197.6829,0.04003906,-3.379883,-2.351074,-86.52439,19.63415,50.85366,0.203125,-0.6259766,0.7148438,-292.5,-22.80488,12.7439
0.5076,2.545898,-1.261719,2.722168,15.06098,-86.21951,-57.80488,0.2460938,-1.716309,0.2265625,108.9024,33.84146,203.9634,-0.1728516,-3.472168,-2.201172,-114.3902,16.89024,64.45122,0.2109375,-0.6264648,0.6923828,-300.1829,-22.13415,12.7439
0.5103,2.481445,-1.271973,2.706543,20,-108.4146,-67.43903,0.2163086,-1.703613,0.1777344,105.5488,31.09756,208.9634,-0.2626953,-3.495117,-2.101074,-125.7317,10.79268,70.60976,0.2011719,-0.6225586,0.6762695,-316.3415,-19.7561,15.91463
0.513,2.382813,-1.288086,2.626465,22.7439,-118.9634,-71.7683,0.2080078,-1.678711,0.09960938,91.15854,25.85366,221.2805,-0.3950195,-3.503906,-1.873535,-144.5122,-8.719512,81.46342,0.2265625,-0.6157227,0.6572266,-324.4512,-18.17073,18.96342
0.5157,2.348633,-1.297363,2.567383,29.26829,-138.7195,-80,0.222168,-1.654297,0.06738281,83.10976,24.7561,226.8902,-0.4306641,-3.49707,-1.761719,-152.0122,-21.52439,85.91463,0.2543945,-0.5961914,0.6450195,-341.8903,-16.40244,22.7439
0.5184,2.289551,-1.310059,2.41748,32.5,-147.561,-83.59756,0.2231445,-1.59668,-0.04882813,64.32927,22.19512,236.4025,-0.4355469,-3.447266,-1.549316,-163.9024,-50.97561,93.29269,0.3012695,-0.5888672,0.6201172,-359.2683,-15.54878,26.82927
0.5211,1.892578,-2.100098,1.95459,19.08537,-167.0122,-99.57317,0.2128906,-1.574219,-0.1293945,54.08537,19.87805,240.3659,-0.3920898,-3.412598,-1.442383,-168.9634,-66.34146,96.15854,0.324707,-0.5722656,0.6181641,-366.8903,-14.39024,28.59756
0.5238,1.608887,-2.562012,2.167969,-7.560976,-200.061,-125.3049,0.2041016,-1.585938,-0.1376953,36.15854,12.2561,247.1951,-0.2661133,-3.365234,-1.241211,-177.8049,-97.5,99.2683,0.3081055,-0.5478516,0.559082,-384.2683,-11.70732,29.87805
0.5265,1.816406,-2.499023,2.575684,-3.231707,-253.7195,-181.7073,0.1269531,-1.644043,-0.1347656,30.48781,6.097561,250.1829,-0.1948242,-3.341309,-1.117676,-181.5244,-113.9024,100.7927,0.2675781,-0.5522461,0.5053711,-393.1707,-9.512196,32.86586
0.5292,2.018555,-2.07666,2.505371,38.17073,-232.3171,-196.1585,0.08740234,-1.6875,-0.1293945,25.97561,-7.134147,257.3171,-0.02978516,-3.253906,-0.7641602,-183.1098,-149.939,103.9634,0.2290039,-0.5722656,0.4189453,-412.1342,-5.670732,40.06098
0.5319,2.462891,-0.9990234,2.112305,177.1951,-116.9512,-164.8781,0.08056641,-1.733887,-0.2255859,26.21951,-10.85366,264.5732,0.07421875,-3.144043,-0.5478516,-180.5488,-165.7927,103.4146,0.2368164,-0.609375,0.4785156,-425,-3.170732,43.47561
0.5346,2.714355,-1.119629,2.214355,261.7683,-65.85366,-138.9634,0.1391602,-1.716309,-0.340332,23.96342,-11.46342,268.2317,0.1958008,-2.814453,-0.07080078,-181.2195,-195.2439,94.81708,0.3144531,-0.7148438,0.8652344,-448.1707,1.95122,48.04878
0.5373,0.512207,-2.358887,1.41748,385.9146,-110,-145.6707,0.3745117,-1.625977,-0.5844727,13.35366,-19.02439,274.5122,0.1601563,-2.576172,0.4462891,-193.2317,-224.2073,90.42683,0.340332,-0.6513672,0.9570313,-454.1464,2.804878,48.71951
0.54,-0.4116211,-2.685547,-0.8955078,256.8293,-233.9634,-163.1707,0.4785156,-1.587891,-0.6855469,6.52439,-28.90244,275.8537,0.3642578,-0.9926758,2.980469,-246.0366,-377.6829,64.14634,0.3149414,-0.4956055,0.7695313,-459.4512,-2.317073,48.53659
0.5427,-5.922363,-2.786621,-6.09375,12.98781,-309.939,-131.2805,0.6567383,-1.59082,-0.7924805,-4.817073,-55.85366,274.7561,0.9916992,2.100586,5.751953,-316.7683,-516.7683,37.7439,0.234375,-0.09912109,0.2832031,-467.683,-6.219512,49.69512
0.5454,-8.562988,-3.326172,-7.370117,-430.6098,-531.1586,64.57317,0.7080078,-1.664551,-0.7700195,-7.378049,-69.57317,274.0244,1.690918,3.760742,7.581055,-439.2073,-588.6586,28.71951,0.2119141,0.09619141,0.05615234,-505,-10.97561,56.40244
0.5481,-9.80127,-5.008789,-2.560059,-477.561,-436.6464,140,0.9482422,-1.838867,-0.5449219,-0.5487805,-77.86585,274.1464,2.755859,9.385254,5.424805,-247.622,-347.561,-73.41463,0.2490234,0.4213867,0.215332,-530.4878,-11.03659,60.73171
0.5508,-5.583496,-5.660645,0.8510742,-57.86586,-107.1951,-105.4268,1.042969,-1.901855,-0.5625,7.987805,-71.09756,276.2195,2.16748,10.96191,4.669922,-269.3903,-157.6829,-114.4512,0.3330078,0.4375,0.6713867,-585.1219,8.04878,68.78049
0.5535,-4.341309,-5.153809,0.03271484,172.8659,17.80488,-338.1707,0.8530273,-1.94043,-0.6972656,19.39024,-74.5122,293.5976,1.604492,7.962891,6.041016,-267.8049,34.5122,-122.3781,0.2939453,0.1455078,1.242188,-597.561,19.87805,80.2439
0.5562,-3.473145,-2.819824,-1.959961,375.8537,155.3659,-626.2195,0.03027344,-2.215332,-0.7348633,22.19512,-100.1829,312.1951,1.70459,5.558594,5.950684,-220,72.13415,-119.5122,0.2480469,-0.230957,1.177246,-587.3171,10.2439,89.39024
0.5589,-3.020508,-1.764648,-1.926758,424.3293,196.3415,-658.2318,-0.4433594,-2.376465,-0.6699219,40.4878,-157.8049,368.4756,1.952148,1.763184,3.414063,-140.061,262.8049,-101.0366,0.2592773,-1.131836,0.1723633,-567.9268,-32.07317,109.6951
0.5616,-2.358398,-0.7070313,-0.2749023,561.8903,174.6342,-582.3781,-1.090332,-2.462891,-0.8012695,71.82927,-168.5976,407.5,1.618652,0.4072266,0.9511719,-118.2317,343.6585,-98.59756,0.3613281,-1.577148,-0.2192383,-578.2318,-50.18293,118.2927
0.5643,-1.936523,-0.5625,0.6479492,656.0366,90.36585,-499.2073,-1.163574,-2.381348,-1.063965,79.45122,-166.5854,411.6464,0.2734375,-2.342285,-3.535156,-126.9512,272.8659,-92.5,0.6166992,-2.161133,-0.3603516,-622.561,-60.36586,128.4756
0.567,1.294434,0.6723633,0.9355469,770.4268,-68.90244,-351.8903,-0.4833984,-2.063965,-1.730469,58.90244,-162.8049,391.7683,-0.2304688,-3.886719,-4.931152,-163.9634,136.4024,-65,0.7055664,-2.179688,-0.1586914,-649.3903,-55.73171,129.8781
0.5697,4.933105,1.75,0.6245117,622.0732,14.5122,-318.5366,0.07275391,-1.862793,-2.087402,30.60976,-160.9756,373.5976,0.777832,-6.617188,-5.699219,-262.2561,-174.6342,-25.42683,0.8032227,-1.459473,0.3510742,-699.1464,-41.21951,129.3902
0.5724,10.26367,2.152344,5.627441,139.8781,205.7317,-402.9268,0.9755859,-1.581055,-2.822754,-50.73171,-159.8171,349.6342,1.92041,-7.754883,-4.664063,-318.1098,-190.7317,-46.95122,0.8564453,-0.800293,0.7026367,-720.7927,-32.13415,133.9634
0.5751,9.818848,2.209473,6.248047,84.20732,-28.90244,-360,1.402344,-1.566895,-2.936523,-91.15854,-176.4634,342.6219,2.146484,-8.467773,-1.262207,-386.9512,3.597561,-144.5732,1.0625,0.5478516,1.342285,-735.2439,-16.09756,164.2683
0.5778,4.895996,1.183105,3.181641,138.2927,-38.10976,-248.9634,1.975586,-1.799805,-2.39209,-112.2561,-237.9268,330.4268,1.264648,-7.873047,0.5751953,-388.1707,65.48781,-168.2927,1.243652,1.220215,0.9624023,-729.939,-13.10976,183.4756
0.5805,2.932617,0.3276367,1.908691,198.2927,-92.5,-89.2683,1.73877,-2.334473,-1.385254,-77.68293,-259.2073,329.3293,0.01513672,-5.432617,3,-340.7927,82.07317,-144.0244,1.261719,1.087891,0.4599609,-714.5732,-15.36585,222.9268
0.5832,0.3671875,-0.7275391,0.2875977,197.8659,-152.8049,-53.84146,1.266602,-2.595703,-1.008789,60.85366,-267.9878,351.5244,-0.4892578,-2.961914,3.69043,-311.0976,76.46342,-124.7561,1.152344,-0.09082031,-0.3173828,-711.9512,-10.30488,241.6463
0.5859,-1.147461,-1.212891,-1.276367,129.8171,-268.9024,-19.87805,0.234375,-2.768555,-0.6738281,135.1219,-267.6219,364.2073,-0.7348633,-1.987793,3.654297,-259.2683,62.7439,-93.90244,0.8583984,-1.138184,-0.3178711,-716.0976,9.268292,271.2195
0.5886,-1.752441,-1.28125,-1.626465,50.30488,-295.3659,-11.28049,-0.1142578,-2.694336,-0.684082,241.2805,-256.5854,383.2927,-1.193848,-0.4003906,3.187988,-240,55.36586,-80.18293,0.6616211,-2.65918,0.1240234,-715.9147,26.58537,305.4268
0.5913,-2.88623,-1.459473,-1.638672,-100.061,-245.9756,35.18293,-0.2739258,-2.308594,-1.020508,280.6098,-207.622,389.5732,-1.458496,0.1743164,2.976563,-226.8902,54.20732,-65.60976,0.5546875,-3.041016,0.46875,-718.4756,31.52439,298.3537
0.594,-3.124023,-1.713867,-1.653809,-155.6707,-201.7073,42.56098,-0.2001953,-2.134766,-1.191406,273.8415,-179.3293,388.8415,-2.201172,0.8408203,2.8125,-208.8415,31.28049,-75.73171,0.2202148,-3.038086,0.9277344,-719.8171,21.89024,262.1951
0.5967,-2.967285,-2.374023,-1.374512,-204.0244,-86.40244,-3.47561,0.2705078,-1.987793,-1.112305,235.1829,-144.3293,390.2439,-2.612793,0.8457031,2.749023,-187.439,-1.341463,-86.46342,0.08789063,-2.741211,0.9521484,-714.2683,11.28049,242.3781
0.5994,-2.393555,-2.606445,-0.8837891,-179.3902,-32.13415,-50.67073,0.590332,-2.036621,-0.8466797,219.7561,-133.7805,392.0732,-3.397949,0.300293,1.620605,-120.4878,-149.2073,-89.5122,0.06933594,-2.00293,0.1298828,-703.1708,2.682927,207.1342
0.6021,-1.487305,-2.617676,0.3554688,0.7317073,40.4878,-149.8781,1.097656,-2.236328,-0.3701172,221.8293,-115.5488,398.9634,-3.176758,-0.05078125,0.9707031,-99.02439,-231.8902,-77.86585,0.2358398,-1.639648,-0.46875,-708.6586,22.7439,204.2683
0.6048,-1.170898,-2.391602,0.6948242,231.6463,41.46342,-174.7561,1.161621,-2.326172,-0.3662109,232.0122,-123.1707,405.5488,-1.803223,-0.9116211,0.2841797,-110.2439,-223.5976,-53.71951,0.2602539,-1.570313,-0.7856445,-744.6342,55.42683,228.8415
0.6075,-0.3027344,-1.727051,0.7158203,308.7195,17.86585,-165,0.987793,-2.390137,-0.6572266,259.5732,-191.8293,435.7317,-1.152344,-1.455078,0.2353516,-121.8902,-185.9146,-38.29268,0.3242188,-1.814941,-0.9648438,-765.7318,22.31707,230.7927
0.6102,0.5712891,-1.350098,0.449707,355.3049,1.707317,-149.3293,0.7358398,-2.456543,-0.762207,274.3903,-243.2317,456.8293,0.1821289,-2.31543,0.6308594,-119.3293,-189.2073,-7.012195,0.4335938,-2.721191,0.06298828,-792.2561,9.634147,222.0122
0.6129,2.09375,-0.6240234,0.3588867,323.5366,24.63415,-164.3902,0.309082,-2.590332,-0.3583984,315.4268,-319.6951,493.4756,0.8364258,-2.469238,0.890625,-107.0122,-217.9268,-2.865854,0.4956055,-3.751953,1.600098,-780.3049,6.036585,218.8415
0.6156,2.40625,-0.04833984,0.6210938,280.4268,3.47561,-166.4634,-0.1704102,-2.509277,0.206543,346.5244,-325.2439,500.4878,1.546875,-2.293457,1.507324,-84.7561,-234.2073,-12.92683,0.5786133,-4.057129,1.842285,-694.8781,-46.58537,202.5
0.6183,2.231934,0.2202148,0.5834961,262.1951,-8.963415,-144.6951,-0.5014648,-2.366211,0.4584961,400.8537,-310,505.1219,1.460938,-2.07959,1.809082,-73.23171,-209.0854,-15.42683,0.7089844,-4.106445,1.296875,-641.4634,-87.80488,193.0488
0.621,1.233887,0.4931641,0.4677734,213.7805,-29.39025,-55.06098,-0.7905273,-1.941895,0.3208008,417.439,-301.7683,507.561,0.9233398,-1.468262,1.865234,-41.40244,-145.2439,5,0.8081055,-3.964844,0.8706055,-568.2318,-155.5488,180.6707
0.6237,0.7231445,0.5058594,0.3520508,171.7073,-52.13415,-7.804878,-0.8549805,-1.671875,0.015625,408.2927,-257.6829,499.6342,0.7470703,-1.088379,1.616211,-28.53659,-122.1951,21.34146,1.166504,-3.722168,0.3164063,-553.1707,-173.5976,176.0366
0.6264,-0.0859375,0.2705078,0.1831055,65.85366,-108.7805,56.40244,-0.6484375,-1.154785,-0.5629883,329.2073,-199.7561,463.5366,0.737793,-0.3730469,0.9663086,-16.82927,-84.69512,40.91463,1.351563,-3.694824,0.2509766,-550.7318,-183.7195,165
0.6291,-0.2827148,0.1010742,0.09375,12.80488,-136.5244,77.80488,-0.605957,-1.014648,-0.7290039,279.2683,-166.5854,438.0488,0.8413086,0.09326172,0.4941406,-18.10976,-63.90244,38.84146,1.420898,-3.830566,0.6782227,-552.8049,-185.4878,158.9634
0.6318,-0.390625,-0.1958008,-0.06054688,-87.80488,-158.2317,89.2683,-0.590332,-0.9726563,-0.769043,185.7927,-119.939,401.5244,0.7988281,0.1713867,0.4365234,-31.15854,-23.41463,17.7439,1.303223,-3.908691,1.007324,-542.8658,-187.3171,163.1707
0.6345,-0.4458008,-0.3325195,-0.04345703,-129.7561,-149.0244,77.2561,-0.5444336,-1.006836,-0.6806641,152.5,-105.4268,387.8659,0.4165039,0.02148438,0.6699219,-44.20732,-8.597561,-1.829268,0.9516602,-3.953125,1.541016,-502.8049,-191.2805,177.7439
0.6372,-0.5078125,-0.6308594,-0.08203125,-176.3415,-108.2317,33.90244,-0.4570313,-1.109375,-0.4516602,123.9634,-87.92683,360.6098,0.1030273,-0.1494141,0.8691406,-47.19512,-10.67073,-4.573171,0.8374023,-3.935059,1.763184,-473.5366,-194.0854,183.1707
0.6399,-0.5043945,-0.7851563,-0.1816406,-188.0488,-39.08537,0.3658537,-0.4116211,-1.127441,-0.3676758,127.439,-88.41463,347.3171,-0.5693359,-0.5327148,1.197754,-45.91463,-12.62195,2.195122,1.001465,-3.715332,2.082031,-401.2805,-185.5488,173.8415
0.6426,-0.3706055,-1.123535,-0.390625,-186.7073,-10.2439,-9.878049,-0.347168,-1.102539,-0.265625,155.5488,-101.9512,311.0976,-0.8359375,-0.6796875,1.214355,-40.36586,-11.34146,6.829268,1.143555,-3.524414,2.115723,-361.5244,-178.4756,157.3781
0.6453,-0.2250977,-1.318359,-0.409668,-166.8902,18.78049,-23.78049,-0.2822266,-0.9985352,-0.1547852,172.0732,-112.6829,292.3781,-1.099121,-0.8408203,0.96875,-25.97561,-18.71951,7.682927,1.132813,-3.269043,2.338867,-289.1464,-183.1098,125.6707
0.648,0.112793,-1.709961,-0.1870117,-143.7195,21.52439,-29.20732,-0.2124023,-0.8896484,-0.171875,212.9878,-120,244.7561,-1.097168,-0.8681641,0.8344727,-20.36585,-29.7561,3.841464,0.9628906,-3.208496,2.692871,-255.122,-204.939,118.3537
0.6507,0.3579102,-1.980469,0.1259766,-72.7439,8.04878,-37.19512,-0.07763672,-0.5698242,-0.4414063,230.3049,-111.4024,216.7073,-0.9091797,-0.8491211,0.7773438,-15.42683,-58.41463,-4.939024,0.7055664,-3.113281,3.107422,-169.8781,-241.4634,124.3293
0.6534,0.4042969,-2.029297,0.1757813,-30.79268,-3.963415,-36.64634,-0.05273438,-0.4145508,-0.605957,243.3537,-86.46342,159.4512,-0.7314453,-0.8056641,0.8583984,-15.30488,-69.93903,-7.073171,0.7475586,-2.999512,3.224609,-120.4878,-237.1951,126.6463
0.6561,0.3144531,-1.92334,0.02783203,40.18293,-23.84146,-24.87805,-0.04150391,-0.1347656,-0.7700195,226.7683,-56.09756,109.0244,-0.3164063,-0.6503906,1.098145,-16.28049,-77.37805,-6.707317,0.828125,-2.921875,3.154785,-27.2561,-236.3415,108.5976
0.6588,0.2021484,-1.810059,-0.06005859,62.98781,-28.59756,-14.02439,-0.02392578,-0.02050781,-0.7788086,215.5488,-33.90244,82.5,-0.1176758,-0.5390625,1.163574,-15.73171,-75.73171,-5.792683,1.128418,-2.779297,2.830078,12.19512,-253.4146,89.39024
0.6615,0.05615234,-1.563965,-0.07519531,86.95123,-32.37805,8.353659,0.03271484,0.07568359,-0.8149414,185.6707,23.59756,22.37805,0.1967773,-0.3227539,1.016602,-11.70732,-69.93903,-7.256098,1.338867,-2.77832,2.714355,72.43903,-299.0244,50.73171
0.6642,0.05664063,-1.441406,0.01904297,93.10976,-32.9878,14.20732,0.08691406,0.1044922,-0.815918,169.0854,57.13415,-9.45122,0.3081055,-0.2773438,0.8950195,-10.79268,-65.79269,-9.817074,1.787598,-2.858887,2.493652,128.4756,-299.2683,25.42683
0.6669,0.1181641,-1.220703,0.2436523,107.1951,-29.32927,9.512196,0.2104492,0.1142578,-0.8364258,127.9878,123.0488,-76.28049,0.3881836,-0.4086914,0.7783203,-14.32927,-53.84146,-15.54878,1.977051,-2.86377,2.324707,156.3415,-278.9024,16.70732
0.6696,0.1103516,-1.113281,0.3203125,113.9634,-22.86585,2.073171,0.2578125,0.09863281,-0.840332,100.4268,146.0366,-107.6829,0.2685547,-0.7338867,0.940918,-18.04878,-46.89024,-16.03658,2.154297,-2.763672,2.062012,205.6098,-218.2317,8.292683
0.6723,0.00390625,-0.8984375,0.3515625,122.622,-7.012195,-7.134147,0.2792969,-0.004882813,-0.8886719,31.34146,158.5366,-159.6951,0.168457,-0.875,1.077637,-23.65854,-33.53659,-10.79268,2.152344,-2.656738,2.004395,227.2561,-185.6707,9.817074
0.675,-0.04589844,-0.8076172,0.296875,115,-0.7317073,-6.463415,0.2587891,-0.1791992,-0.965332,-9.390244,144.6951,-177.9878,0.0546875,-0.9672852,1.099121,-16.58537,-23.71951,-1.097561,2.015137,-2.348145,1.935547,268.7805,-123.0488,23.47561
0.6777,-0.144043,-0.6787109,0.2241211,103.0488,-2.560976,-3.902439,0.3032227,-0.2978516,-0.9658203,-96.58537,87.56097,-201.4634,0.06933594,-0.8945313,0.9873047,-11.34146,-21.82927,2.439024,1.895508,-2.166504,1.881836,288.4756,-95.85366,31.64634
0.6804,-0.1630859,-0.5683594,0.2675781,74.93903,-10.36585,4.878049,0.4628906,-0.5600586,-0.9125977,-138.7805,55.2439,-209.4512,0.1582031,-0.6201172,0.7788086,-6.707317,-20.2439,6.158537,1.580078,-1.811035,1.679688,325.6707,-46.40244,45.4878
0.6831,-0.1489258,-0.5292969,0.3061523,61.89024,-13.59756,7.804878,0.5332031,-0.6928711,-0.8759766,-209.0244,-2.5,-222.8659,0.2177734,-0.4926758,0.7192383,-7.560976,-19.14634,6.463415,1.417969,-1.622559,1.518555,342.6829,-27.62195,47.62195
0.6858,-0.1860352,-0.4584961,0.2890625,38.90244,-15.60976,10.48781,0.6347656,-0.9570313,-0.7709961,-251.5854,-44.2683,-233.8415,0.2807617,-0.324707,0.8271484,-13.90244,-14.93902,7.865854,1.053711,-1.231934,1.177246,366.0366,-8.658537,42.5
0.6885,-0.2358398,-0.4482422,0.2182617,26.28049,-15.30488,11.58537,0.6694336,-1.070801,-0.7148438,-260,-58.53659,-237.3171,0.28125,-0.2675781,0.9331055,-15.85366,-10.60976,9.329268,0.6762695,-0.8735352,0.9204102,371.5854,-6.646342,38.78049
0.6912,-0.3862305,-0.487793,0.06542969,-6.463415,-16.70732,13.71951,0.7939453,-1.271973,-0.6811523,-247.622,-64.14634,-240.122,0.2363281,-0.1518555,0.9638672,-14.81707,0.8536586,14.20732,0.515625,-0.7148438,0.8232422,375.4268,-12.92683,33.47561
0.6939,-0.4418945,-0.5415039,0.02832031,-25.42683,-19.5122,15.06098,0.8354492,-1.354004,-0.7026367,-228.4756,-54.20732,-236.3415,0.2026367,-0.09179688,0.8828125,-13.59756,7.621952,16.76829,0.2954102,-0.4453125,0.6733398,375.2439,-20.06098,32.2561
0.6966,-0.409668,-0.6914063,0.04150391,-61.09756,-23.96342,13.41463,0.8173828,-1.447754,-0.6923828,-170.6707,-27.80488,-222.439,0.1542969,-0.06933594,0.6933594,-15.18293,17.0122,15.48781,0.2021484,-0.3295898,0.6230469,370.8537,-39.63415,30.79268
0.6993,-0.3295898,-0.7714844,0.09082031,-73.47561,-22.37805,8.658537,0.7797852,-1.456055,-0.6635742,-137.3781,-21.28049,-214.7561,0.1469727,-0.1391602,0.6298828,-17.80488,18.90244,11.82927,0.09423828,-0.1855469,0.5600586,367.6219,-51.09756,31.76829
0.702,-0.1591797,-0.9204102,0.2353516,-82.43903,-9.939025,-6.341464,0.6816406,-1.408691,-0.5942383,-75.54878,-23.90244,-200.8537,0.05712891,-0.4121094,0.6162109,-23.78049,23.10976,4.329268,0.07373047,-0.1469727,0.5463867,360.7927,-73.35366,35.06098
0.7047,-0.1000977,-0.987793,0.2802734,-66.89024,1.95122,-16.82927,0.6293945,-1.263184,-0.5307617,-51.03659,-26.82927,-195.2439,-0.03662109,-0.5629883,0.6723633,-26.52439,25.67073,4.45122,0.09765625,-0.1655273,0.5454102,354.0854,-92.7439,36.34146
0.7074,-0.00390625,-1.084473,0.2792969,-55.18293,2.560976,-18.71951,0.6064453,-1.160645,-0.5117188,-17.43902,-25.54878,-188.4756,-0.2172852,-0.7670898,0.7861328,-25,27.31707,11.89024,0.1352539,-0.2148438,0.5537109,351.9512,-101.4024,36.03659
0.7101,0.01123047,-1.108398,0.2333984,-36.34146,-7.378049,-16.15854,0.5341797,-0.9125977,-0.4951172,-7.317073,-22.98781,-187.5,-0.3120117,-0.7563477,0.8764648,-22.0122,23.10976,16.28049,0.2167969,-0.3657227,0.5805664,350.5488,-116.4634,30.30488
0.7128,0.01953125,-1.121582,0.1113281,-31.82927,-15.12195,-12.56098,0.4829102,-0.7768555,-0.4790039,2.621951,-19.26829,-188.7195,-0.3144531,-0.6831055,0.8681641,-13.90244,9.634147,22.2561,0.2617188,-0.4453125,0.5864258,351.4024,-122.8049,26.28049
0.7155,0.0078125,-1.111328,0.05273438,-30.54878,-26.21951,-5.914634,0.371582,-0.5078125,-0.4404297,5.487805,-21.34146,-192.0122,-0.2626953,-0.5,0.793457,-9.634147,-1.890244,19.69512,0.3374023,-0.6000977,0.5893555,354.6342,-133.7195,15
0.7182,-0.005859375,-1.104492,0.03173828,-31.28049,-29.26829,-3.04878,0.315918,-0.3823242,-0.4267578,5.243903,-25.42683,-194.0854,-0.2431641,-0.425293,0.800293,-9.634147,-5.426829,16.28049,0.3642578,-0.6694336,0.5908203,356.6464,-138.1098,8.597561
0.7209,-0.08935547,-1.099121,-0.01464844,-34.2683,-32.07317,-0.6097561,0.2070313,-0.1743164,-0.4165039,1.341463,-37.56098,-197.9878,-0.230957,-0.3457031,0.878418,-11.40244,-8.109756,11.89024,0.3959961,-0.7744141,0.5883789,361.5244,-146.7073,-5.670732
0.7236,-0.1445313,-1.111816,-0.02001953,-35.4878,-32.80488,-0.1829268,0.1791992,-0.08447266,-0.3964844,-2.621951,-44.2683,-198.9634,-0.2426758,-0.3310547,0.9038086,-11.40244,-7.804878,11.52439,0.4179688,-0.8344727,0.5952148,364.3903,-150,-12.68293
0.7263,-0.2016602,-1.171875,-0.01611328,-35.30488,-36.52439,0.3048781,0.1606445,0.06494141,-0.3740234,-13.35366,-57.56098,-204.0244,-0.2250977,-0.3466797,0.9174805,-10.42683,-6.585366,12.19512,0.4257813,-0.8510742,0.5976563,372.0122,-154.3902,-26.09756
0.729,-0.1831055,-1.199219,-0.02832031,-34.87805,-37.37805,-1.585366,0.1586914,0.1113281,-0.3911133,-20.97561,-64.63415,-208.3537,-0.1884766,-0.3837891,0.9174805,-9.878049,-8.292683,10.30488,0.4589844,-0.8476563,0.5869141,375.8537,-154.939,-32.43903
0.7317,-0.1044922,-1.241211,-0.04394531,-34.2683,-31.89025,-8.719512,0.1757813,0.1948242,-0.4262695,-40.30488,-81.28049,-221.7073,-0.1298828,-0.4956055,0.9233398,-9.45122,-11.76829,2.012195,0.4858398,-0.8188477,0.5805664,385.1829,-152.3171,-43.71951
0.7344,-0.07763672,-1.250488,-0.04248047,-32.37805,-26.40244,-12.13415,0.2905273,0.1748047,-0.4902344,-50.73171,-95.54878,-232.7439,-0.1347656,-0.5424805,0.9047852,-9.02439,-11.15854,-0.6707317,0.5546875,-0.7382813,0.5581055,389.1464,-149.939,-49.20732
0.7371,-0.06347656,-1.25293,-0.03271484,-22.07317,-18.04878,-14.81707,0.4213867,0.1186523,-0.4770508,-76.82927,-109.0244,-257.6219,-0.1928711,-0.543457,0.8857422,-8.414635,-8.04878,-0.1829268,0.5869141,-0.6894531,0.5527344,396.2805,-142.439,-58.17073
0.7398,-0.06445313,-1.241211,-0.04052734,-5.914634,-20.67073,-11.70732,0.6181641,0.03125,-0.4956055,-91.89024,-102.622,-270.1219,-0.2104492,-0.5063477,0.9057617,-7.378049,-7.621952,2.012195,0.6518555,-0.5800781,0.5537109,401.4634,-132.9878,-64.5122
0.7425,-0.08300781,-1.203125,-0.07226563,0.4268293,-24.02439,-9.573171,0.6889648,-0.03076172,-0.5209961,-122.1951,-80.97561,-291.5854,-0.1816406,-0.394043,0.8984375,-5.304878,-12.5,5.121951,0.6889648,-0.5234375,0.5507813,403.8415,-128.6585,-66.95122
0.7452,-0.01708984,-1.175781,-0.06494141,7.865854,-27.37805,-7.5,0.8374023,-0.206543,-0.5610352,-137.1342,-67.68293,-296.8293,-0.1367188,-0.3466797,0.8457031,-4.329268,-13.78049,4.45122,0.7333984,-0.3994141,0.546875,407.3171,-121.5244,-72.13415
0.7479,0.04150391,-1.165527,-0.03369141,9.268292,-25.18293,-9.756098,0.9121094,-0.2915039,-0.5756836,-161.1585,-45.85366,-298.1707,-0.04785156,-0.3393555,0.6713867,-4.939024,-12.2561,-2.926829,0.7407227,-0.3388672,0.5375977,408.7195,-118.2927,-74.08537
0.7506,0.1210938,-1.121094,0.04882813,12.7439,-14.20732,-16.64634,1.004883,-0.4467773,-0.5649414,-177.9878,-40.79268,-298.0488,-0.08496094,-0.4575195,0.6191406,-7.439024,-11.09756,-7.865854,0.7382813,-0.2421875,0.5063477,409.6951,-113.5366,-77.98781
0.7533,0.1162109,-1.084961,0.06835938,17.62195,-8.658537,-18.35366,1.023926,-0.5053711,-0.5483398,-181.0976,-40.54878,-296.0366,-0.1479492,-0.5195313,0.6655273,-12.07317,-7.682927,-11.64634,0.722168,-0.2080078,0.4936523,408.9024,-111.9512,-80.18293
0.756,0.01025391,-0.9711914,0.04980469,31.15854,-6.463415,-13.29268,1.023438,-0.6069336,-0.5302734,-178.2317,-42.37805,-290.061,-0.2617188,-0.5170898,0.8149414,-12.5,-6.890244,-9.390244,0.675293,-0.1904297,0.4790039,407.3171,-110.4878,-85.36585
0.7587,-0.06982422,-0.9199219,-0.000488281,37.31707,-10.91463,-7.073171,0.9941406,-0.637207,-0.5239258,-172.2561,-45.12195,-286.5244,-0.2592773,-0.440918,0.8916016,-9.634147,-12.0122,-0.7926829,0.6479492,-0.2075195,0.4790039,406.1585,-110.8537,-88.17073
0.7614,-0.1987305,-0.8613281,-0.1386719,37.0122,-28.04878,6.158537,0.8969727,-0.6640625,-0.5126953,-154.7561,-53.23171,-280.6098,-0.1030273,-0.2060547,0.9121094,-4.02439,-24.14634,-0.6707317,0.5942383,-0.2714844,0.4833984,405.7317,-111.4024,-95
0.7641,-0.2241211,-0.8588867,-0.175293,29.5122,-33.84146,9.695122,0.8349609,-0.6694336,-0.4975586,-144.3902,-57.9878,-278.6585,-0.005371094,-0.109375,0.8374023,-2.5,-27.43903,-4.634146,0.5644531,-0.3632813,0.4902344,405.7927,-111.4634,-98.41463
0.7668,-0.1723633,-0.8974609,-0.1152344,7.926829,-30.67073,7.560976,0.7275391,-0.6640625,-0.4521484,-123.4146,-65.54878,-277.7439,0.1235352,-0.08447266,0.6123047,-5.487805,-22.92683,-16.82927,0.5439453,-0.4091797,0.4868164,407.0732,-111.7683,-108.0488
0.7695,-0.1079102,-0.9277344,-0.01904297,-1.829268,-13.47561,-6.585366,0.6435547,-0.625,-0.4174805,-114.1463,-67.37805,-279.8781,0.1005859,-0.1806641,0.5610352,-9.573171,-16.95122,-21.28049,0.5053711,-0.4951172,0.4555664,407.6219,-112.439,-113.5976
0.7722,-0.0078125,-0.980957,0.1494141,1.890244,-5.060976,-14.45122,0.59375,-0.6083984,-0.4125977,-98.59756,-65.54878,-289.0244,-0.09228516,-0.5004883,0.6494141,-16.03658,-7.012195,-20.97561,0.4882813,-0.5268555,0.4306641,407.7439,-114.2683,-125
0.7749,0.004882813,-0.9902344,0.1689453,18.35366,4.817073,-23.90244,0.5205078,-0.5878906,-0.3911133,-94.7561,-62.7439,-293.7195,-0.2109375,-0.6342773,0.7314453,-16.15854,-5.060976,-16.15854,0.4458008,-0.5712891,0.375,406.0976,-117.1951,-136.3415
0.7776,-0.01806641,-0.9907227,0.1000977,25.97561,4.02439,-23.35366,0.4995117,-0.5776367,-0.3803711,-95.73171,-53.90244,-302.561,-0.3354492,-0.7099609,0.824707,-10.91463,-10.60976,-6.585366,0.4199219,-0.5839844,0.3505859,403.6585,-119.1463,-141.7683
0.7803,-0.01318359,-0.9921875,0.005371094,28.59756,-4.085366,-18.90244,0.4697266,-0.5771484,-0.34375,-104.939,-44.7561,-308.7805,-0.300293,-0.6567383,0.8139648,-7.378049,-17.43902,-6.585366,0.375,-0.6000977,0.3178711,397.8049,-123.6585,-152.5
0.783,0.005859375,-1.001953,-0.002929688,24.45122,-8.170732,-16.46342,0.4619141,-0.5830078,-0.3183594,-112.1951,-41.7683,-309.6951,-0.1538086,-0.512207,0.769043,-2.865854,-31.76829,-15.67073,0.3544922,-0.6035156,0.3046875,394.5122,-126.1585,-157.7439
0.7857,0.07958984,-1.036621,0.04248047,13.78049,-8.902439,-14.69512,0.4638672,-0.6030273,-0.2700195,-129.0854,-40.2439,-307.561,-0.08349609,-0.4711914,0.7314453,-3.04878,-34.93903,-20.4878,0.3295898,-0.6000977,0.2919922,387.5,-129.6951,-168.0488
0.7884,0.09570313,-1.056152,0.08349609,10.60976,-5.487805,-15.30488,0.4755859,-0.6162109,-0.2485352,-138.1098,-41.70732,-304.6342,-0.02246094,-0.4873047,0.7172852,-5.182927,-33.35366,-26.15854,0.3095703,-0.5991211,0.2924805,383.7805,-131.3415,-173.6585
0.7911,0.07470703,-1.073242,0.1054688,12.80488,0.06097561,-15.79268,0.5200195,-0.6357422,-0.2202148,-155.9756,-46.89024,-296.8293,-0.1225586,-0.5634766,0.8227539,-6.707317,-30.12195,-25.30488,0.2836914,-0.5859375,0.2958984,375.6707,-133.7195,-184.0854
0.7938,0.02587891,-1.068848,0.07861328,16.28049,0.6707317,-14.69512,0.5424805,-0.6494141,-0.21875,-164.939,-49.63415,-292.9878,-0.2094727,-0.5742188,0.8867188,-6.036585,-25.2439,-19.02439,0.2685547,-0.5761719,0.2963867,371.7073,-134.5122,-189.3293
0.7965,-0.1049805,-1.046387,-0.02490234,22.07317,-4.085366,-6.585366,0.5966797,-0.6933594,-0.2373047,-183.3537,-53.35366,-284.5732,-0.3227539,-0.4916992,1.012207,-4.817073,-25.36585,-15.18293,0.2475586,-0.5546875,0.2817383,362.8659,-134.8781,-198.1707
0.7992,-0.1689453,-1.053223,-0.09228516,22.0122,-8.353659,-1.097561,0.6479492,-0.7485352,-0.2709961,-192.7439,-54.08537,-280.4268,-0.3095703,-0.4047852,1.030273,0.06097561,-32.62195,-14.7561,0.246582,-0.5249023,0.2744141,357.561,-134.3293,-201.7683
0.8019,-0.2636719,-1.096191,-0.1640625,12.7439,-16.09756,6.341464,0.6655273,-0.7783203,-0.2915039,-211.7073,-52.80488,-273.1098,-0.1743164,-0.246582,0.9291992,3.414634,-42.9878,-25.12195,0.2431641,-0.5087891,0.28125,345.9756,-131.7683,-207.439
0.8046,-0.2631836,-1.134766,-0.1479492,1.707317,-16.34146,4.207317,0.6806641,-0.8588867,-0.3330078,-221.3415,-51.03659,-269.6951,-0.09375,-0.2128906,0.871582,2.682927,-45.73171,-31.46342,0.2412109,-0.4941406,0.3256836,339.8781,-130.3049,-209.4512
0.8073,-0.1914063,-1.209473,-0.03759766,0.3658537,-12.62195,-0.8536586,0.6772461,-0.9038086,-0.3500977,-239.0244,-47.56098,-262.9878,-0.004394531,-0.2919922,0.7695313,-0.6707317,-44.02439,-38.59756,0.2451172,-0.4926758,0.355957,327.6829,-127.3171,-211.2805
0.81,-0.1391602,-1.233398,0.02099609,10.54878,-0.6097561,-14.08537,0.652832,-0.9946289,-0.3657227,-253.6585,-44.14634,-256.3415,-0.03125,-0.3852539,0.7421875,-3.292683,-40.30488,-37.68293,0.2446289,-0.496582,0.4379883,322.1951,-125.9756,-211.5854
0.8127,-0.04931641,-1.228516,0.1113281,21.21951,5.487805,-19.5122,0.6362305,-1.040039,-0.3696289,-258.7195,-43.53659,-253.5366,-0.1577148,-0.5639648,0.7773438,-5,-33.17073,-31.03659,0.2441406,-0.5102539,0.4858398,312.0122,-122.7439,-210.4878
0.8154,-0.004394531,-1.174805,0.1313477,45.42683,10.42683,-23.41463,0.5908203,-1.127441,-0.3603516,-263.7195,-42.80488,-249.2683,-0.1879883,-0.6088867,0.8295898,-4.02439,-33.35366,-28.10976,0.2426758,-0.5541992,0.6030273,304.7561,-120,-209.0854
0.8181,0.01367188,-1.137207,0.1235352,55.42683,9.207317,-22.62195,0.565918,-1.169434,-0.3457031,-264.1464,-42.62195,-247.7439,-0.1274414,-0.6035156,0.8647461,0.1829268,-42.2561,-30.18293,0.2382813,-0.5878906,0.6665039,302.0122,-118.6585,-208.4756
0.8208,0.02636719,-1.056152,0.1240234,65.79269,4.085366,-18.35366,0.5322266,-1.240234,-0.3198242,-260.6707,-42.13415,-246.5854,-0.05517578,-0.5654297,0.8256836,2.134146,-46.15854,-33.65854,0.2148438,-0.6601563,0.7744141,299.4512,-117.9268,-207.8049
0.8235,0.03564453,-1.012695,0.1323242,66.89024,2.743902,-15.54878,0.5166016,-1.270996,-0.3032227,-256.8903,-41.70732,-246.8293,0.05517578,-0.4711914,0.7402344,2.378049,-47.43903,-37.5,0.199707,-0.7084961,0.8203125,298.8415,-118.1098,-207.622
0.8262,0.01806641,-0.9345703,0.1479492,62.68293,2.682927,-12.19512,0.4936523,-1.317383,-0.2739258,-247.8659,-40.36586,-249.0854,0.07763672,-0.4355469,0.7285156,1.402439,-45.12195,-37.07317,0.1694336,-0.8032227,0.8950195,298.8415,-120.061,-206.8902
0.8289,-0.01220703,-0.9003906,0.1425781,58.96342,3.292683,-11.21951,0.4838867,-1.345703,-0.2524414,-243.0488,-39.20732,-251.0366,0.02197266,-0.3920898,0.769043,-1.158537,-37.92683,-30.85366,0.1567383,-0.8486328,0.9296875,299.0244,-121.5244,-206.8293
0.8316,-0.08203125,-0.855957,0.1079102,48.71951,4.146341,-9.45122,0.4838867,-1.352051,-0.2412109,-235.3049,-36.82927,-256.2195,-0.01416016,-0.3842773,0.8056641,-1.707317,-35.73171,-27.62195,0.1386719,-0.9291992,0.9907227,300.5488,-125.061,-206.7683
0.8343,-0.1191406,-0.8486328,0.08837891,37.0122,2.134146,-8.109756,0.5,-1.361816,-0.2207031,-232.1342,-35.73171,-259.0244,-0.04248047,-0.3530273,0.8256836,-1.463415,-35.60976,-26.89025,0.137207,-0.9702148,1.01709,301.3415,-126.7073,-206.9512
0.837,-0.1572266,-0.8769531,0.07177734,31.03659,0.7317073,-8.231708,0.5087891,-1.365723,-0.2055664,-228.4756,-34.2683,-264.5122,-0.02880859,-0.3466797,0.824707,-1.341463,-36.64634,-28.84146,0.1542969,-1.033203,1.05127,303.7195,-128.2927,-207.7439
0.8397,-0.1503906,-0.9155273,0.078125,20.30488,-2.073171,-14.20732,0.5410156,-1.361816,-0.1860352,-227.0732,-33.71951,-269.8171,-0.01953125,-0.3730469,0.7905273,-2.134146,-38.65854,-33.04878,0.1767578,-1.071289,1.074707,305.2439,-128.4756,-208.7805
0.8424,-0.07177734,-1.006836,0.1376953,17.07317,-1.707317,-19.20732,0.5551758,-1.368652,-0.1738281,-227.561,-34.02439,-271.8293,0.015625,-0.4716797,0.6020508,-4.45122,-38.10976,-35.36586,0.1904297,-1.077148,1.079102,307.561,-127.439,-210.6098
0.8451,0.05957031,-1.088867,0.2514648,17.07317,4.573171,-32.80488,0.5922852,-1.386719,-0.1577148,-230.7927,-34.39024,-275.2439,0.01171875,-0.5380859,0.5708008,-6.95122,-36.40244,-35.42683,0.2026367,-1.07666,1.092285,308.4146,-126.3415,-211.4025
0.8478,0.09472656,-1.094238,0.3007813,22.37805,7.560976,-39.32927,0.6103516,-1.401855,-0.1499023,-233.1707,-33.96342,-276.0976,-0.05664063,-0.6601563,0.7973633,-10.2439,-34.39024,-32.07317,0.2075195,-1.070801,1.098633,310.1219,-124.5122,-212.3171
0.8505,0.01904297,-1.014648,0.2631836,40.97561,10.79268,-42.43903,0.6464844,-1.439941,-0.1396484,-240.1829,-33.23171,-277.5,-0.08886719,-0.6650391,0.9414063,-9.207317,-33.96342,-28.35366,0.2148438,-1.056152,1.12793,309.6951,-122.6829,-212.9268
0.8532,-0.07421875,-0.9472656,0.1508789,50.36586,10.48781,-36.21951,0.6557617,-1.464355,-0.1308594,-244.0244,-33.23171,-277.6219,-0.09912109,-0.440918,1.029297,-3.47561,-32.7439,-20.79268,0.2104492,-1.052246,1.156738,308.6585,-122.3171,-213.4756
0.8559,-0.253418,-0.8808594,-0.07226563,51.46342,5.97561,-18.47561,0.6733398,-1.522461,-0.09375,-251.1585,-32.43903,-276.3415,-0.08056641,-0.2441406,1.021484,-0.7926829,-32.68293,-18.65854,0.1918945,-1.064453,1.211914,309.3293,-124.6341,-214.8171
0.8586,-0.3012695,-0.8959961,-0.1308594,42.31707,1.097561,-11.46342,0.690918,-1.587402,-0.04345703,-254.3293,-31.64634,-275.7927,0.04443359,0.06640625,0.9155273,-1.52439,-33.23171,-23.10976,0.184082,-1.071777,1.236328,310,-125.9756,-215.7317
0.8613,-0.2734375,-1.00293,-0.06298828,15.48781,-5.914634,-11.21951,0.703125,-1.622559,-0.02636719,-258.3537,-28.41463,-275.3049,0.09960938,0.07958984,0.8325195,-5.060976,-32.43903,-27.62195,0.1977539,-1.102051,1.274414,311.5854,-128.7805,-218.3537
0.864,-0.2114258,-1.072266,0.04248047,4.512195,-4.634146,-17.86585,0.7207031,-1.675781,0.000976563,-259.8781,-26.82927,-275.4268,0.06933594,-0.2236328,0.7255859,-15.97561,-24.45122,-32.13415,0.2114258,-1.123535,1.285156,311.8903,-130.1829,-220.2439
0.8667,-0.09912109,-1.168457,0.2416992,2.682927,8.963415,-35.73171,0.7338867,-1.701172,0.01269531,-262.7439,-22.31707,-276.5854,-0.005859375,-0.4375,0.7348633,-20.2439,-19.45122,-29.5122,0.2470703,-1.175293,1.294922,312.561,-131.5854,-224.0244
0.8694,-0.06445313,-1.191895,0.2724609,20.67073,20.91463,-47.62195,0.7597656,-1.755371,0.04003906,-263.9024,-19.14634,-277.561,-0.1079102,-0.7421875,0.9633789,-21.09756,-17.7439,-22.43902,0.2783203,-1.19873,1.302734,312.561,-131.9512,-225.7927
0.8721,-0.02246094,-1.216309,0.2392578,29.69512,22.13415,-49.7561,0.7700195,-1.780762,0.05273438,-265.2439,-13.29268,-280.4268,-0.1166992,-0.7836914,1.025391,-17.62195,-20.36585,-20.85366,0.3583984,-1.252441,1.315918,311.4024,-130.3049,-229.5732
0.8748,0.01025391,-1.225586,0.2158203,39.69512,16.70732,-48.90244,0.7924805,-1.837891,0.07958984,-266.7683,-6.341464,-283.9024,-0.02001953,-0.6557617,0.8149414,-12.43902,-24.7561,-23.35366,0.456543,-1.311523,1.333984,310.6098,-127.9878,-231.7683
0.8775,0.1201172,-1.256836,0.2441406,40.12195,13.23171,-48.78049,0.8051758,-1.859863,0.08984375,-267.439,-3.04878,-285.8537,0.06933594,-0.5234375,0.7006836,-13.90244,-23.53659,-25.60976,0.5039063,-1.332031,1.343262,308.9024,-121.0976,-236.1585
0.8802,0.1875,-1.245605,0.3583984,40.4878,13.41463,-49.20732,0.8164063,-1.918945,0.1191406,-268.7805,2.987805,-289.0854,0.09179688,-0.519043,0.7773438,-20.97561,-20,-26.89025,0.5849609,-1.376953,1.356445,308.2317,-116.9512,-239.0854
0.8829,0.168457,-1.214355,0.3847656,43.71951,16.64634,-47.7439,0.8251953,-1.955078,0.1386719,-269.6342,6.341464,-290.7317,0.0859375,-0.5610352,0.9233398,-25.85366,-15.85366,-22.13415,0.6196289,-1.394043,1.355469,305.8537,-107.622,-245.6707
0.8856,0.01611328,-1.121582,0.3071289,52.19512,21.58537,-39.81707,0.8364258,-2.038574,0.168457,-272.2561,14.5122,-292.8049,0.06054688,-0.5371094,0.9755859,-26.28049,-12.13415,-17.5,0.652832,-1.425781,1.353027,304.6342,-103.0488,-249.1463
0.8883,-0.08496094,-1.083496,0.2280273,52.56098,20.85366,-33.90244,0.8359375,-2.083008,0.1879883,-273.5366,18.96342,-293.7195,0.07861328,-0.3227539,0.9931641,-24.32927,-8.414635,-12.43902,0.6601563,-1.437012,1.344238,300.4878,-93.84147,-256.8293
0.891,-0.2592773,-1.05957,0.09863281,41.52439,15.54878,-24.81707,0.8183594,-2.17334,0.2197266,-277.0122,27.68293,-293.9024,0.1152344,-0.1811523,0.9677734,-24.32927,-9.207317,-14.02439,0.6396484,-1.465332,1.327637,293.7805,-86.09756,-265.3658
0.8937,-0.2973633,-1.07959,0.09130859,31.58537,13.04878,-24.08537,0.7680664,-2.268066,0.2602539,-279.0854,31.70732,-293.0488,0.1225586,-0.04785156,0.8696289,-31.28049,-6.280488,-17.19512,0.6157227,-1.48291,1.325684,289.5122,-83.90244,-269.939
0.8964,-0.2670898,-1.148438,0.1884766,13.71951,12.80488,-34.81707,0.7426758,-2.317871,0.2919922,-283.3537,39.08537,-290,0.09960938,-0.1079102,0.8134766,-36.64634,-2.134146,-16.03658,0.5605469,-1.540039,1.338867,279.4512,-80.60976,-279.4512
0.8991,-0.2211914,-1.180176,0.253418,10.2439,20.36585,-53.41463,0.6630859,-2.405762,0.3525391,-285.1219,42.0122,-288.2317,0.08447266,-0.3647461,0.7568359,-47.2561,6.829268,-12.2561,0.5263672,-1.578613,1.35498,274.8171,-79.57317,-284.5732
0.9018,-0.1523438,-1.206543,0.3027344,13.78049,22.86585,-61.70732,0.6191406,-2.446289,0.3881836,-286.7683,48.04878,-283.9024,0.06787109,-0.5009766,0.8217773,-50.67073,9.45122,-11.03659,0.4604492,-1.673828,1.407715,265.4268,-78.78049,-295.9146
0.9045,-0.09667969,-1.189453,0.2568359,19.14634,22.13415,-72.98781,0.527832,-2.517578,0.4624023,-286.3415,54.5122,-280.1829,0.02441406,-0.6245117,0.9594727,-52.62195,12.86585,-8.597561,0.4248047,-1.737305,1.443848,261.0976,-78.47561,-302.0732
0.9072,-0.04101563,-1.029297,0.1337891,18.17073,17.86585,-75.2439,0.4780273,-2.544922,0.5009766,-284.939,57.56098,-278.4756,0.08349609,-0.5727539,0.9492188,-52.2561,13.71951,-8.170732,0.3520508,-1.864746,1.510742,254.2683,-80.30488,-314.6342
0.9099,0.3764648,-0.7158203,-0.2451172,-0.8536586,15.06098,-74.63415,0.3789063,-2.59375,0.5869141,-280.7317,63.17073,-276.3415,0.137207,-0.362793,0.8344727,-55.36586,24.26829,-11.89024,0.2709961,-2.006836,1.5625,251.7683,-81.58537,-320.9146
0.9126,0.4550781,-0.7431641,-0.2158203,-20.54878,27.13415,-79.81708,0.3320313,-2.618652,0.625,-277.7439,65.67073,-275.4878,0.02587891,-0.3525391,0.7983398,-61.46342,30.48781,-8.841464,0.2236328,-2.083496,1.583496,247.0732,-84.32927,-333.9024
0.9153,0.2495117,-1.09375,0.1464844,-47.07317,23.23171,-87.0122,0.2314453,-2.660645,0.7006836,-270.3658,68.17073,-274.939,-0.2246094,-0.3867188,0.8686523,-68.90244,33.29268,2.560976,0.1328125,-2.253418,1.610352,245.2439,-85.54878,-339.6951
0.918,0.03466797,-1.301758,0.3134766,-51.15854,12.2561,-85.67073,0.1835938,-2.674805,0.7426758,-266.8293,68.96342,-275.1219,-0.2436523,-0.3637695,0.9208984,-70.06097,28.84146,3.902439,0.07519531,-2.336426,1.617676,241.3415,-87.07317,-350.4268
0.9207,-0.418457,-1.665527,0.5205078,-42.5,-5.121951,-71.40244,0.0703125,-2.714844,0.8125,-260.061,70.48781,-276.0976,-0.1679688,-0.3320313,0.9003906,-69.2683,10.06098,-7.134147,-0.02099609,-2.487305,1.604492,240.3659,-86.82927,-354.939
0.9234,-0.5507813,-1.793457,0.559082,-32.2561,-9.817074,-62.31707,-0.04931641,-2.784668,0.8842773,-258.1098,69.93903,-275.8537,0.008300781,-0.3051758,0.8271484,-69.63415,1.036585,-14.45122,-0.06640625,-2.5625,1.583496,238.1707,-84.45123,-361.3415
0.9261,-0.6108398,-1.885254,0.5673828,-6.036585,-8.109756,-53.71951,-0.09716797,-2.830566,0.9360352,-255.3049,69.32927,-275.7927,0.07763672,-0.3339844,0.8198242,-74.39024,-6.402439,-19.7561,-0.1591797,-2.68457,1.514648,235.6098,-78.59756,-364.3293
0.9288,-0.5776367,-1.839844,0.565918,9.329268,-4.390244,-55.42683,-0.1943359,-2.9375,1.006348,-254.3293,70.42683,-276.2805,0.1225586,-0.4785156,0.8032227,-80.60976,-2.865854,-11.70732,-0.2050781,-2.731934,1.46875,233.5976,-75,-364.0244
0.9315,-0.4628906,-1.587402,0.4907227,46.64634,3.231707,-64.5122,-0.2661133,-2.99707,1.033691,-253.2317,71.89024,-277.5,0.1254883,-0.5498047,0.796875,-83.04878,1.219512,-5.853659,-0.293457,-2.809082,1.383301,229.7561,-66.64634,-361.0976
0.9342,-0.3974609,-1.41748,0.4257813,81.28049,2.195122,-72.68293,-0.4067383,-3.131348,1.115723,-253.9025,72.86585,-275.8537,0.1162109,-0.59375,0.9086914,-85.12196,6.036585,0.4878049,-0.3354492,-2.84668,1.342285,227.6829,-61.82927,-358.4756
0.9369,-0.2807617,-1.100586,0.2666016,92.7439,-1.219512,-75.36585,-0.4731445,-3.205566,1.150879,-253.9025,74.20732,-274.5122,0.09716797,-0.5541992,0.9677734,-84.02439,6.402439,0.7926829,-0.4331055,-2.925781,1.257813,223.5976,-52.19512,-349.8781
0.9396001,-0.2236328,-0.9746094,0.2207031,99.45123,-6.097561,-78.65854,-0.6469727,-3.367188,1.235352,-251.5854,77.37805,-269.6951,0.05273438,-0.4189453,0.8886719,-82.13415,5.365854,0.6707317,-0.480957,-2.968262,1.212891,221.5244,-47.0122,-344.1464
0.9423,-0.05371094,-0.8208008,0.2641602,95.79269,-6.158537,-81.46342,-0.7270508,-3.441895,1.28418,-248.2927,79.45122,-266.8903,0.05273438,-0.3847656,0.7890625,-83.29269,5.670732,1.463415,-0.5454102,-3.078125,1.094727,219.3293,-37.19512,-330.1829
0.9450001,0.1313477,-0.8173828,0.4736328,81.82927,-6.585366,-91.09756,-0.8955078,-3.543457,1.35498,-235.6098,83.10976,-261.0366,0.1123047,-0.4604492,0.6254883,-90.18293,6.707317,2.073171,-0.5620117,-3.141113,1.037598,218.5976,-31.21951,-321.9512
0.9477,0.1723633,-0.8510742,0.5898438,75,-9.268292,-97.5,-0.9833984,-3.565918,1.364258,-226.9512,86.52439,-259.0244,0.09960938,-0.5698242,0.6269531,-95.18293,8.109756,2.256098,-0.5771484,-3.275879,0.8828125,218.2927,-18.17073,-302.3781
0.9504,0.06347656,-0.934082,0.6811523,61.52439,-18.23171,-104.4512,-1.226563,-3.565918,1.317383,-207.3171,92.7439,-255.1829,0.04003906,-0.7763672,0.7871094,-102.3171,9.512196,7.743903,-0.5605469,-3.402344,0.659668,218.7805,-11.28049,-292.0732
0.9531,-0.06835938,-0.9731445,0.6430664,53.53659,-21.34146,-102.9878,-1.526367,-3.516113,1.197266,-198.5976,94.45123,-252.439,0.04248047,-0.8017578,0.8979492,-102.561,8.47561,10.60976,-0.5537109,-3.455566,0.5273438,219.8171,4.268293,-270.1829
0.9558,-0.3867188,-1.035645,0.4921875,32.86586,-24.20732,-89.39024,-1.697754,-3.472656,1.112793,-183.6585,96.34147,-243.6585,0.06738281,-0.6430664,1.052734,-97.37805,2.804878,11.64634,-0.5410156,-3.541992,0.2495117,220.3659,12.92683,-258.0488
0.9585,-0.5029297,-1.071777,0.4213867,21.76829,-25.79268,-80.91463,-2.096191,-3.349121,0.8920898,-178.3537,95.79269,-237.3171,0.08300781,-0.3515625,0.9892578,-95.67073,0.4268293,12.56098,-0.5385742,-3.574707,0.09912109,222.7439,33.71951,-232.0732
0.9612,-0.5405273,-1.186035,0.3974609,1.585366,-30.85366,-71.15854,-2.313477,-3.279297,0.7670898,-170.6707,93.53659,-222.2561,0.1083984,-0.2402344,0.8754883,-97.43903,0.4878049,16.82927,-0.5625,-3.602539,-0.2387695,225.9146,53.59756,-204.0244
0.9639,-0.4819336,-1.261719,0.4487305,-4.45122,-38.84146,-81.03659,-2.802734,-3.133301,0.4995117,-163.7805,87.98781,-205.4878,0.1679688,-0.215332,0.7133789,-102.3171,2.439024,18.71951,-0.5981445,-3.598633,-0.4277344,226.4634,60.67073,-188.6585
0.9666,-0.3730469,-1.402344,0.5751953,0.2439024,-42.92683,-90.97561,-3.064941,-3.077148,0.3833008,-159.3902,80.60976,-195.6098,0.184082,-0.2836914,0.7939453,-117.439,7.621952,21.09756,-0.6987305,-3.560059,-0.8203125,224.2073,69.32927,-156.0366
0.9693,-0.3994141,-1.432129,0.5844727,21.89024,-49.20732,-106.6463,-3.562012,-2.972168,0.2495117,-143.3537,66.21951,-176.7073,0.03369141,-0.4355469,1.039063,-127.2561,10.48781,26.03659,-0.7636719,-3.539063,-1.006836,221.1585,70.36585,-138.2927
0.972,-0.4682617,-1.40332,0.3608398,31.46342,-48.53659,-109.2683,-3.803711,-2.916016,0.2353516,-129.8781,58.47561,-168.7195,-0.000976563,-0.4365234,1.098633,-128.4756,12.19512,30.73171,-0.9145508,-3.5,-1.333008,209.8781,66.15854,-100.1829
0.9747,-0.3227539,-1.40625,0.2363281,36.52439,-42.31707,-112.1951,-4.199707,-2.77002,0.3232422,-91.09756,39.93903,-155.7927,0.04638672,-0.3134766,0.8662109,-128.5976,10.30488,32.56098,-0.9985352,-3.481934,-1.46875,202.8659,60.12195,-81.40244
0.9774,-0.1831055,-1.45166,0.3017578,35.18293,-41.09756,-117.0732,-4.35498,-2.657715,0.4101563,-67.98781,28.71951,-149.8781,0.05664063,-0.2851563,0.6806641,-133.6585,10.97561,31.95122,-1.155762,-3.454102,-1.677734,185.3659,44.02439,-46.03659
0.9801,0.02197266,-1.554688,0.5585938,38.59756,-48.65854,-133.3537,-4.541992,-2.345215,0.6337891,-26.15854,-4.390244,-132.9878,0.007324219,-0.4140625,0.5966797,-154.1463,15.06098,34.7561,-1.23877,-3.440918,-1.755859,175.9146,34.14634,-30.54878
0.9828,0.04833984,-1.578125,0.6235352,45.36586,-55,-140.6707,-4.481934,-1.941895,0.8852539,-10.12195,-23.29268,-122.1341,-0.015625,-0.5258789,0.6791992,-163.9634,17.37805,37.31707,-1.399902,-3.403809,-1.907715,155.1829,11.03659,-4.817073
0.9855,-0.08935547,-1.553711,0.5703125,59.57317,-62.19512,-145.2439,-4.388184,-1.739258,1.013672,8.231708,-53.96342,-101.0366,-0.03662109,-0.6826172,0.9658203,-174.6951,14.81707,39.93903,-1.535645,-3.348633,-2.014648,143.7195,-1.52439,4.878049
0.9882,-0.2084961,-1.51123,0.4638672,63.04878,-63.04878,-141.1585,-4.142578,-1.400391,1.32959,10.79268,-63.59756,-91.34147,-0.03320313,-0.6801758,1.089844,-175.9146,10.36585,40.12195,-1.593262,-3.333496,-2.04834,117.9878,-29.32927,18.23171
0.9909,-0.3203125,-1.437012,0.309082,56.21951,-59.08537,-128.9024,-3.98291,-1.288574,1.523438,9.207317,-68.65854,-76.03659,-0.01464844,-0.5102539,1.000488,-175.9146,5.060976,41.03659,-1.643555,-3.334473,-2.097168,105.061,-43.96342,21.76829
0.9936,-0.3012695,-1.442871,0.3354492,48.65854,-58.10976,-125.9146,-3.691406,-1.17041,1.955078,9.390244,-55.42683,-65.67073,0.01025391,-0.4057617,0.8476563,-179.1463,6.036585,42.9878,-1.628418,-3.353516,-2.114746,80,-69.93903,22.80488
0.9963,-0.2983398,-1.491699,0.5126953,39.93903,-64.63415,-132.561,-3.55127,-1.169434,2.163086,10.97561,-44.93903,-61.28049,0.0703125,-0.3334961,0.8007813,-194.939,9.390244,46.58537,-1.496094,-3.435059,-2.178223,68.47561,-79.32927,21.03659
0.999,-0.3808594,-1.50293,0.5371094,44.87805,-76.7683,-142.1951,-3.349121,-1.251465,2.538086,20.36585,-27.31707,-48.41463,0.06347656,-0.3515625,0.9287109,-203.4146,10.30488,47.9878,-1.388184,-3.483398,-2.222656,47.19512,-86.64635,11.34146
1.0017,-0.5800781,-1.458008,0.3305664,46.70732,-80.36585,-144.2683,-3.218262,-1.316895,2.675293,27.07317,-18.35366,-38.35366,0.0078125,-0.3378906,1.140625,-213.1098,11.09756,52.2561,-1.106934,-3.578125,-2.323242,27.56098,-78.65854,-1.158537
1.0044,-0.6201172,-1.437988,0.2080078,39.57317,-78.41463,-147.561,-2.996582,-1.432129,2.798828,40.60976,-0.9146342,-19.02439,0.01513672,-0.2099609,1.005371,-214.8781,11.82927,55.36586,-0.9575195,-3.604004,-2.385742,17.9878,-69.39024,-6.95122
1.0071,-0.4824219,-1.46875,0.1660156,33.65854,-74.81708,-151.4634,-2.875488,-1.499512,2.825684,45.85366,8.109756,-7.012195,0.02636719,-0.159668,0.8505859,-221.6463,14.87805,60.06098,-0.6845703,-3.574707,-2.510742,-1.890244,-41.40244,-16.40244
1.0098,-0.2241211,-1.600098,0.3598633,29.45122,-72.62196,-169.3902,-2.654785,-1.612305,2.786133,53.17073,31.70732,13.96342,0.02636719,-0.215332,0.6611328,-240.4878,20.54878,62.13415,-0.565918,-3.52002,-2.559082,-13.23171,-24.02439,-19.5122
1.0125,-0.1147461,-1.66748,0.4365234,33.53659,-74.02439,-181.5244,-2.574219,-1.65625,2.746582,53.96342,41.70732,25.42683,0.01513672,-0.3046875,0.6518555,-251.4634,23.71951,62.5,-0.4121094,-3.335938,-2.623535,-38.78049,14.69512,-22.80488
1.0152,-0.03710938,-1.744141,0.4604492,48.41463,-76.03659,-202.439,-2.431641,-1.695801,2.655762,53.35366,65.42683,47.7439,-0.04931641,-0.5224609,0.7202148,-270.6707,28.65854,62.7439,-0.3764648,-3.22168,-2.628418,-52.7439,34.7561,-23.29268
1.0179,-0.06982422,-1.743652,0.3774414,55.73171,-76.89024,-207.439,-2.397461,-1.65625,2.557617,53.23171,78.84147,57.62195,-0.09472656,-0.621582,0.815918,-278.4756,27.80488,63.41463,-0.3916016,-2.992188,-2.557617,-84.57317,71.95122,-22.7439
1.0206,-0.140625,-1.662598,0.1079102,59.08537,-76.82927,-207.0732,-2.421875,-1.608887,2.495117,55.85366,102.9878,75.06097,-0.1308594,-0.7075195,0.9853516,-288.1098,20.36585,64.14634,-0.4384766,-2.89502,-2.478027,-101.5854,88.04878,-22.31707
1.0233,-0.1694336,-1.630371,0.02636719,54.08537,-75.48781,-204.2683,-2.466309,-1.608887,2.248535,57.68293,112.8049,84.08537,-0.1279297,-0.6816406,0.9819336,-290.7317,16.95122,63.53659,-0.5957031,-2.772461,-2.226074,-135.4878,112.0122,-23.17073
1.026,-0.1723633,-1.602051,0.01171875,42.62195,-72.0122,-199.5122,-2.479492,-1.978516,2.055176,47.5,117.8049,114.5122,-0.1225586,-0.5566406,0.8510742,-297.5,17.31707,63.47561,-0.8037109,-2.779785,-1.876953,-151.0976,118.4146,-24.57317
1.0287,-0.1733398,-1.602539,0.02734375,39.5122,-71.09756,-200.1829,-2.561523,-2.735352,1.963867,7.195122,124.6951,206.7073,-0.1230469,-0.4946289,0.8178711,-304.3293,18.65854,64.7561,-0.9150391,-2.82666,-1.694824,-177.8049,119.939,-29.39025
1.0314,-0.2114258,-1.614746,-0.007324219,38.41463,-73.23171,-206.6463,-2.668457,-2.89209,1.938965,-14.39024,127.3171,265.4878,-0.1196289,-0.4189453,0.828125,-321.6464,19.63415,67.31708,-1.081055,-2.94873,-1.375488,-188.4146,116.2805,-32.19512
1.0341,-0.2250977,-1.624512,-0.06982422,34.93903,-70.79269,-218.1707,-2.4375,-2.305664,2.040039,-20.85366,128.5366,347.3781,-0.1191406,-0.3847656,0.8032227,-330.2439,21.15854,68.17073,-1.099121,-2.996094,-1.236816,-207.0122,105.3049,-39.2683
1.0368,-0.2114258,-1.66748,-0.1430664,31.64634,-66.89024,-224.8781,-2.181152,-1.628906,2.097168,21.28049,125.061,334.2073,-0.1235352,-0.3125,0.6459961,-346.8903,25.48781,69.14634,-1.050781,-2.933594,-0.8964844,-224.1463,90.79269,-47.7439
1.0395,-0.09082031,-1.73877,-0.1469727,26.34146,-55.91463,-240.6707,-2.06543,-1.372559,1.86377,192.2561,106.0366,260.4878,-0.1230469,-0.2924805,0.5537109,-356.9512,27.31707,69.39024,-0.9916992,-2.785156,-0.6728516,-237.7439,80.73171,-50.18293
1.0422,-0.06738281,-1.770996,-0.1411133,25.67073,-51.15854,-249.7561,-1.549316,-1.780273,0.9301758,265.4878,83.23171,244.0854,-0.09179688,-0.293457,0.5185547,-382.5,28.10976,68.35366,-0.7519531,-1.921387,0.4272461,-324.7561,70.60976,-49.45122
1.0449,-0.1362305,-1.795898,-0.2661133,28.35366,-46.34146,-264.3903,1.328125,-2.427246,-3.542969,167.0122,25.60976,244.2073,-0.08398438,-0.315918,0.5966797,-397.1342,26.40244,67.07317,-0.7929688,-0.8701172,1.478027,-394.6342,67.0122,-44.57317
1.0476,-0.2216797,-1.831055,-0.3476563,26.95122,-43.65854,-269.6342,6.439453,-3.13623,-8.259277,-72.2561,74.02439,239.6951,-0.105957,-0.2768555,0.5849609,-425.8537,19.93902,64.08537,-1.838867,1.937012,5.437988,-523.7195,32.5,22.68293
1.0503,-0.6254883,-1.914063,-0.2885742,22.98781,-46.46342,-276.9512,8.750488,-4.480469,-6.776367,-616.4025,345.3049,204.5732,-0.2133789,-0.0234375,0.3339844,-456.2195,12.92683,67.0122,-2.333008,3.719238,7.265625,-489.8781,-66.21951,116.1585
1.053,-0.8500977,-1.90918,-0.2563477,26.09756,-52.43903,-278.5366,8.898438,-6.744629,0.8769531,-646.0976,342.3171,130.3659,-0.3291016,0.152832,0.3852539,-476.7683,4.878049,73.41463,0.5249023,7.955566,5.925293,-312.0732,-225.122,318.4756
1.0557,-1.059082,-1.818848,-0.4584961,29.69512,-46.34146,-283.2317,6.043457,-6.983398,2.408691,-73.65854,131.4024,120.3659,-0.3969727,0.3525391,0.8198242,-513.2317,-32.2561,92.68293,2.320801,7.994141,5.02002,-287.5,-236.2195,292.0122
1.0584,-0.8999023,-1.828125,-0.5791016,21.40244,-30.54878,-290,1.893555,-4.912598,-0.03417969,484.5122,-212.1342,490.6098,-0.3007813,0.3085938,1.163086,-525.1219,-45.2439,100,3.091309,4.063965,5.212402,-264.3293,-127.1341,185.1829
1.0611,-0.105957,-2.181152,-0.3310547,-3.658537,25.30488,-319.8781,2.080078,-3.496094,-0.9726563,598.5366,-327.3781,625.3049,0.05615234,-0.1831055,1.458008,-529.4512,-13.47561,96.15854,3.188965,0.8095703,3.28418,-214.1463,-84.2683,160.9146
1.0638,0.4047852,-2.419434,-0.1503906,8.902439,49.32927,-365.9756,2.746582,-1.503906,-0.3447266,691.7073,-279.0244,649.6342,0.1870117,-0.5185547,1.211426,-531.0366,38.17073,84.57317,3.328125,-0.2509766,1.407715,-119.5122,-51.46342,119.5122
1.0665,0.9423828,-2.666016,-0.3457031,25.60976,48.59756,-381.7683,2.39209,-0.9516602,0.4472656,737.2561,-174.6342,578.4756,0.07421875,-1.089355,0.3945313,-557.9878,150.3659,49.08537,3.224609,-2.283203,-2.658691,-104.3902,-0.7926829,85.48781
1.0692,0.8120117,-2.610352,-0.7143555,41.64634,40.30488,-374.939,0.08203125,-0.6166992,1.696777,887.1951,21.82927,425.3659,-0.1660156,-1.264648,0.09863281,-582.8658,177.2561,31.82927,2.22168,-3.315918,-4.256348,-170.8537,231.8293,4.45122
1.0719,0.1552734,-2.253418,-1.583984,35.12195,39.2683,-356.4634,-2.40918,-0.2021484,2.169434,977.439,45.36586,381.6464,-0.7075195,-1.246582,-0.004882813,-628.9025,133.5366,6.768293,-3.125,-5.47998,-5.098633,-244.3293,316.6464,-8.841464
1.0746,-0.2441406,-1.900879,-2.281738,0.6707317,57.19512,-322.5,-9.295898,2.821777,3.201172,667.3781,-128.3537,339.6342,-0.9541016,-0.9926758,0.1103516,-645.2439,67.7439,2.743902,-6.174316,-6.474609,-3.921875,-386.8903,238.8415,125.1829
1.0773,-0.3613281,-1.888184,-2.431152,-16.40244,82.68293,-319.6342,-7.936035,3.65625,2.341797,402.1342,45.79268,399.3903,-1.167969,-0.2905273,0.5932617,-670.9147,-114.2073,13.35366,-6.961426,-7.717285,0.4077148,-421.4024,109.3293,328.9024
1.08,-0.6621094,-2.222656,-2.111328,-24.7561,165.9756,-330.1829,-5.25293,2.947754,1.111328,34.20732,163.5366,369.6951,-1.03125,0.03320313,0.840332,-680.6708,-185.3659,28.35366,-4.996582,-7.563477,2.441895,-386.9512,101.0366,322.8659
1.0827,-0.7363281,-2.499512,-1.688477,-11.28049,199.6342,-340.9146,-1.055176,0.7832031,0.1030273,-19.93902,132.8049,290.6098,-0.4511719,0.5947266,1.04248,-692.8049,-182.439,62.13415,-0.5424805,-6.563477,4.678711,-315.7927,80.54878,167.561
1.0854,-0.4833984,-3.013184,-0.6948242,46.21951,218.1098,-373.5976,0.06982422,-0.02685547,-0.3632813,0.2439024,170.3049,144.1463,0.08789063,0.7026367,0.7392578,-711.4025,-112.6829,67.31708,1.314941,-6.087402,5.927246,-269.8781,100.7927,102.6829
1.0881,-0.1586914,-3.130859,-0.4150391,85.36585,213.5366,-395.9146,0.8183594,-1.012207,-1.437988,-16.89024,197.6829,45.4878,0.2148438,0.4731445,0.5864258,-777.439,62.80488,42.92683,3.546875,-4.585449,6.593262,-69.69512,159.4512,42.92683
1.0908,0.1435547,-2.98584,-0.5317383,143.0488,222.8049,-445.8537,0.9492188,-1.417969,-1.694336,-70.12196,152.9268,8.292683,0.06982422,-0.2548828,0.1845703,-804.6951,132.7439,16.15854,4.119629,-3.243164,4.955078,26.76829,160.1219,44.14634
1.0935,-0.004394531,-2.817871,-0.8037109,153.7805,229.2073,-460.1219,1.337402,-2.083008,-1.480469,-225.8537,20.85366,-50.54878,-0.1884766,-0.609375,0.08642578,-845.9756,188.7805,-48.53659,3.006836,-1.566895,1.950195,83.35366,132.8049,84.02439
1.0962,-0.5014648,-2.533203,-1.456543,139.0244,227.9268,-457.5,1.58252,-2.366699,-1.359863,-307.9268,-19.63415,-67.13415,-0.9018555,-1.313477,0.4155273,-872.9269,155.5488,-99.45123,2.1875,-0.1611328,0.5957031,85.85366,141.8902,128.1098
1.0989,-0.7495117,-2.501953,-1.591797,110.8537,217.622,-432.8049,1.616211,-3.030273,-1.023926,-382.0732,25.91463,-28.47561,-1.097656,-1.615234,0.7036133,-874.939,131.5244,-112.622,2.476074,0.5791016,0.1640625,73.41463,240.9146,201.3415
1.1016,-1.222168,-2.629395,-1.378418,111.7073,215.6098,-420.6098,1.212402,-3.363281,-0.6733398,-328.5976,97.31708,39.2683,-1.044922,-2.024902,1.101563,-857.6829,81.15854,-129.2073,3.05127,1.035156,-0.5283203,50.30488,284.2073,203.3537
1.1043,-1.731934,-2.919434,-0.878418,151.2805,211.7073,-407.6219,0.3193359,-3.322754,0.3071289,-86.21951,65.2439,109.1463,-0.8432617,-2.161621,1.104492,-840.9756,54.5122,-129.5122,2.79541,0.6079102,-0.6425781,-27.86585,295.4878,138.7805
1.107,-1.946289,-3.102051,-0.5170898,185.2439,204.0854,-409.7561,-0.07275391,-2.762207,1.244141,82.92683,14.93902,103.5976,-0.3583984,-2.197266,0.8222656,-816.9512,-3.231707,-108.4756,1.16748,-0.7602539,-0.2431641,-65.18293,279.3293,99.14635
1.1097,-2.078613,-3.316895,0.1201172,277.6829,182.3781,-429.0244,-0.1523438,-2.353027,1.358887,382.5,1.036585,57.0122,-0.1479492,-2.121094,0.6269531,-812.3171,-31.21951,-92.31708,0.2753906,-1.304688,0.2070313,-108.5366,249.4512,63.53659
1.1124,-1.932129,-3.345703,0.378418,329.3903,178.9025,-443.9634,-0.1953125,-1.485352,0.9838867,476.5854,44.81707,34.02439,0.3496094,-2.007813,-0.01464844,-835.3049,-5.487805,-56.70732,-0.6186523,-1.805664,1.238281,-101.1585,241.5244,53.65854
1.1151,-1.518066,-3.110352,0.3310547,420.5488,184.4512,-483.5366,-0.2216797,-1.07959,0.6367188,560.6707,185.5488,12.07317,0.5126953,-1.812012,-0.5830078,-860.6708,45.97561,-51.28049,-0.6606445,-1.91748,1.706055,-80.73171,234.0854,35.67073
1.1178,-1.331543,-2.871094,0.1079102,443.9634,188.2927,-498.0488,-0.3349609,-0.3876953,-0.06591797,539.0244,275.6707,5.731708,0.2407227,-1.86084,-0.71875,-912.8049,48.65854,-99.14635,-1.275391,-1.231934,1.950195,-14.5122,212.6829,8.231708
1.1205,-0.8979492,-2.466309,-0.2421875,447.8659,191.4025,-508.4146,-0.4130859,-0.09570313,-0.277832,503.7195,277.9268,1.890244,-0.07324219,-2.309082,-0.1425781,-931.4634,32.62195,-116.7683,-1.285645,-0.8364258,1.773438,10.30488,202.1951,17.37805
1.1232,-0.7231445,-2.348633,-0.2880859,440.3659,187.9878,-507.8659,-0.5185547,0.3681641,-0.480957,408.5976,217.3171,-12.07317,-0.6240234,-3.489258,1.458984,-923.2318,57.07317,-111.7073,-0.9697266,-0.2133789,1.168457,32.86586,167.439,31.76829
1.1259,-0.3427734,-2.243652,-0.2314453,442.1342,175.3049,-490.6707,-0.5024414,0.5258789,-0.4736328,351.7073,169.5732,-20.60976,-0.9926758,-4.438477,2.421875,-886.0976,83.10976,-104.2683,-0.7128906,-0.06835938,0.9199219,34.02439,142.8049,30.30488
1.1286,-0.1855469,-2.087891,-0.2700195,438.2317,148.7195,-459.3293,-0.3828125,0.675293,-0.1396484,221.6463,73.84147,-36.58537,-1.106934,-4.679199,2.435059,-791.8293,124.7561,-101.4634,-0.3461914,-0.1347656,0.5742188,27.43903,106.8293,22.19512
1.1313,0.09375,-1.705078,-0.3588867,417.1342,126.2805,-440.9756,-0.2602539,0.6342773,0.08691406,157.6219,30.42683,-41.70732,-1.321289,-4.844727,2.002441,-749.2073,138.6585,-106.6463,-0.1381836,-0.2631836,0.4082031,21.58537,95.06097,20.2439
1.134,0.2661133,-1.538086,-0.2460938,377.6219,100.4268,-410,-0.02783203,0.3481445,0.1826172,44.69512,-20.91463,-43.47561,-1.411133,-4.836426,1.800293,-680.6708,131.9512,-118.7195,0.5102539,-0.4746094,0.2548828,6.707317,91.82927,13.59756
1.1367,0.625,-1.306641,0.1074219,365.061,93.23171,-395.9756,0.05957031,0.1230469,0.06298828,-7.073171,-30.73171,-40,-1.481445,-4.745117,1.718262,-625.3049,100.2439,-119.8781,1.070801,-0.6962891,0.5092773,-1.890244,93.10976,8.780488
1.1394,0.8447266,-1.154785,0.3071289,349.3903,74.81708,-370.5488,0.1176758,-0.3212891,-0.3056641,-110.6098,-27.37805,-30.18293,-1.524902,-4.758301,1.879883,-595.2439,94.87805,-111.7073,1.15625,-0.7910156,0.7387695,-10.97561,97.68293,6.52439
1.1421,0.8701172,-1.084961,0.3696289,343.8415,65.79269,-357.8659,0,-0.6606445,-0.6337891,-165.6707,-21.64634,-21.15854,-1.474121,-4.63623,2.435547,-517.6219,118.4756,-73.04878,0.847168,-0.8686523,1.116211,-9.390244,100.3659,12.31707
1.1448,0.7587891,-0.9038086,0.4150391,333.0488,48.29268,-328.1707,-0.04345703,-0.7880859,-0.6728516,-273.5976,-4.207317,5.914634,-1.282715,-4.476563,2.62207,-475,126.2195,-57.07317,0.5449219,-0.7993164,1.139648,7.926829,103.4146,27.92683
1.1475,0.6513672,-0.8168945,0.394043,325.4878,37.86586,-308.7805,-0.03759766,-1.043945,-0.409668,-315.4268,9.817074,21.34146,-1.027832,-4.131348,2.537109,-382.9268,122.7439,-43.29268,-0.03759766,-0.5283203,0.9790039,23.90244,102.3781,31.46342
1.1502,0.300293,-0.6069336,0.2666016,306.4024,17.5,-266.0366,-0.005371094,-1.18457,-0.1860352,-340.6707,41.95122,49.5122,-1.053711,-3.983887,2.371094,-333.7195,111.9512,-37.9878,-0.2543945,-0.4262695,0.9331055,27.80488,102.9268,30.2439
1.1529,0.175293,-0.4868164,0.1723633,295.7317,7.134147,-237.9268,0.015625,-1.471191,0.1142578,-274.6342,63.04878,70.18293,-1.569824,-3.79541,2.046387,-231.8902,25.06098,-31.03659,-0.3056641,-0.4736328,1.068848,36.03659,102.1951,23.84146
1.1556,0.01318359,-0.2612305,-0.0234375,267.8658,-15.30488,-177.5,-0.01513672,-1.59375,0.1694336,-220.7927,50.67073,68.04878,-1.744141,-3.30957,1.715332,-203.4146,-26.40244,-6.829268,-0.4121094,-0.5322266,0.8891602,39.32927,94.14635,22.0122
1.1583,-0.04101563,-0.1489258,-0.1235352,247.8049,-33.29268,-147.3171,-0.2001953,-1.844727,0.2480469,-92.31708,5.853659,54.14634,-0.9428711,-3.161621,3.447266,-194.6342,-45.12195,43.53659,-0.08984375,-0.7792969,0.6865234,27.2561,51.46342,26.64634
1.161,-0.08251953,0.03564453,-0.4282227,197.439,-85,-88.96342,-0.2451172,-1.936035,0.265625,-27.86585,-11.70732,47.68293,-0.2954102,-3.372559,5.058105,-157.1342,-0.3658537,51.09756,0.1572266,-0.8867188,0.7382813,22.80488,37.56098,25.06098
1.1637,-0.09521484,0.1142578,-0.7207031,130.4268,-147.1951,-37.31707,-0.09228516,-1.952637,0.1811523,74.93903,-10.48781,30.60976,0.5664063,-3.27832,4.400391,-23.41463,98.29269,35.91463,0.5488281,-0.8847656,0.9643555,24.39024,32.7439,16.09756
1.1664,-0.04980469,0.190918,-1.287109,86.28049,-170.1219,-16.46342,0.02587891,-1.873047,0.07910156,108.1707,4.146341,17.68293,0.6523438,-2.924316,3.21875,24.87805,121.2805,30.30488,0.6289063,-0.7626953,1.04248,27.37805,35.73171,12.86585
1.1691,0.02685547,0.1220703,-1.456055,-17.37805,-178.4756,14.63415,0.1625977,-1.616699,-0.1313477,141.3415,35.18293,-8.963415,0.7578125,-2.111816,2.716797,56.89024,105.4878,17.43902,0.5097656,-0.3930664,1.056641,31.70732,42.5,14.20732
1.1718,0.2158203,-0.2524414,-1.559082,-69.32927,-166.5854,28.29268,0.1723633,-1.358398,-0.246582,145.7317,44.08537,-18.47561,0.7495117,-1.65625,3.209961,68.53659,100,4.878049,0.2290039,-0.1782227,0.9130859,30.73171,45.60976,17.62195
1.1745,0.4472656,-0.7304688,-1.352539,-146.7073,-123.8415,39.5122,0.1523438,-1.26123,-0.2387695,140.9756,43.65854,-25.79268,0.5761719,-1.567871,3.287598,117.439,140.5488,-24.26829,0.07421875,-0.2089844,0.8432617,22.98781,49.93903,26.89025
1.1772,0.4375,-0.9145508,-1.248535,-162.2561,-96.21951,36.40244,0.112793,-1.10498,-0.07324219,136.6463,37.13415,-24.87805,0.03564453,-1.63916,3.258301,174.1463,181.7073,-43.84146,-0.1313477,-0.4321289,0.809082,17.37805,50.2439,31.09756
1.1799,0.21875,-1.102539,-1.132324,-162.0122,-47.92683,38.17073,0.1342773,-1.038086,0.06347656,131.2195,27.31707,-21.28049,-0.184082,-1.75293,3.114746,204.5122,191.1585,-49.08537,-0.1669922,-0.5527344,0.8452148,8.658537,40.97561,29.7561
1.1826,0.08203125,-1.087402,-1.083984,-152.9878,-31.58537,47.80488,0.1713867,-0.9140625,0.2739258,132.561,33.17073,-24.39024,-0.4907227,-1.743164,2.348633,257.439,205.5488,-59.02439,-0.1933594,-0.6694336,0.9179688,7.378049,33.96342,24.45122
1.1853,-0.07910156,-0.9199219,-1.168945,-127.2561,-7.682927,81.82927,0.1611328,-0.8535156,0.3144531,133.0488,37.62195,-26.95122,-0.6235352,-1.589844,1.87207,269.8171,202.7439,-66.58537,-0.1904297,-0.6499023,0.9072266,9.512196,25.06098,13.29268
1.188,-0.1601563,-0.8349609,-1.266113,-120.7927,1.768293,102.0122,0.08398438,-0.7539063,0.3164063,127.1951,38.71951,-30,-0.8413086,-1.208008,1.240234,268.2317,159.6951,-89.20732,-0.2241211,-0.5253906,0.7841797,10,18.96342,9.573171
1.1907,-0.3095703,-0.7353516,-1.405762,-120.7317,8.780488,144.7561,0.01855469,-0.7241211,0.3188477,120.8537,33.53659,-28.71951,-0.9072266,-1.041016,1.123047,262.561,121.6463,-104.1463,-0.2368164,-0.4589844,0.71875,8.780488,16.34146,11.09756
1.1934,-0.3217773,-0.7290039,-1.39209,-130.5488,19.81707,181.8902,0.009765625,-0.6875,0.4057617,107.0732,23.29268,-21.52439,-0.9111328,-0.7983398,1.187012,261.6464,37.37805,-135.1829,-0.1733398,-0.4091797,0.6933594,2.439024,13.47561,10.30488
1.1961,-0.2670898,-0.8085938,-1.211426,-136.7073,29.20732,193.9634,0.04833984,-0.6445313,0.3964844,99.63415,21.89024,-18.71951,-0.8569336,-0.715332,1.275879,267.439,1.036585,-147.9268,-0.09960938,-0.4106445,0.7514648,-1.52439,9.695122,6.829268
1.1988,-0.2304688,-0.8930664,-1.054199,-143.5366,51.70732,200.7927,0.1411133,-0.5595703,0.2421875,75.79269,19.14634,-18.35366,-0.590332,-0.6103516,1.439453,287.0732,-42.13415,-162.561,0.06689453,-0.3999023,0.890625,-3.963415,-1.219512,-1.829268
1.2015,-0.1894531,-1.055664,-0.6831055,-141.6463,64.02439,195.9756,0.2138672,-0.527832,0.04296875,57.92683,17.31707,-18.84146,-0.3876953,-0.5820313,1.467285,299.5732,-47.13415,-164.5732,0.1376953,-0.3671875,0.9038086,-2.560976,-5.121951,-4.268293
1.2042,-0.234375,-1.146484,-0.4233398,-130.6098,87.2561,176.4634,0.2197266,-0.5361328,-0.05664063,13.59756,8.170732,-15.85366,0.08349609,-0.5478516,1.375977,323.7805,-28.65854,-158.9024,0.2080078,-0.3066406,0.7919922,-1.036585,-5.731708,-4.756098
1.2069,-0.2792969,-1.15332,-0.3520508,-123.0488,96.82927,164.8781,0.1728516,-0.644043,-0.1499023,-11.95122,0.4268293,-10.60976,0.3261719,-0.5395508,1.285645,333.0488,-8.536586,-153.1707,0.2080078,-0.3061523,0.715332,-2.195122,-4.695122,-2.439024
1.2096,-0.3740234,-1.075684,-0.2915039,-109.8781,111.5854,143.1098,0.137207,-0.7280273,-0.1318359,-59.32927,-14.14634,9.878049,0.7763672,-0.5297852,1.084473,345.9146,42.2561,-142.0732,0.1977539,-0.4155273,0.6479492,-7.073171,0.6097561,4.695122
1.2123,-0.4179688,-1.00293,-0.3022461,-104.3902,117.9878,134.6342,0.08789063,-0.8857422,-0.03808594,-90.12196,-17.07317,29.81707,1.099609,-0.5517578,0.9301758,349.3903,70.48781,-138.8415,0.2021484,-0.6049805,0.7006836,-9.817074,2.378049,6.097561
1.215,-0.4819336,-0.8051758,-0.3579102,-99.81708,126.4024,123.6585,0.06396484,-0.9570313,0.02148438,-97.68293,-14.5122,34.7561,1.194824,-0.5766602,0.8696289,353.7805,128.9024,-139.1463,0.2099609,-0.6689453,0.7480469,-9.817074,2.621951,4.146341
1.2177,-0.4824219,-0.7021484,-0.3793945,-99.93903,129.2073,122.3171,0.046875,-1.084473,0.1064453,-96.95123,-5.060976,35.30488,1.234375,-0.6376953,0.7631836,357.3781,187.1342,-146.7073,0.21875,-0.6865234,0.815918,-7.804878,3.109756,1.890244
1.2204,-0.4399414,-0.4912109,-0.3886719,-102.3171,132.8049,122.8659,0.06738281,-1.130859,0.1030273,-91.09756,1.829268,30.73171,1.172363,-0.6679688,0.7021484,359.4512,214.2073,-151.4024,0.2050781,-0.6386719,0.800293,-2.378049,4.329268,-1.829268
1.2231,-0.4125977,-0.3911133,-0.3833008,-104.5122,135.1829,124.8781,0.0859375,-1.203125,0.08789063,-74.14634,15.42683,17.92683,0.9160156,-0.7163086,0.5888672,362.1342,260.7317,-160.1829,0.1567383,-0.4780273,0.7763672,2.256098,6.52439,0.9756098
1.2258,-0.3422852,-0.2236328,-0.3505859,-107.0732,145.3659,129.5122,0.09326172,-1.229492,0.08837891,-62.56098,21.76829,12.43902,0.7392578,-0.7382813,0.5385742,363.2927,280.1829,-162.3781,0.1611328,-0.4155273,0.7998047,2.560976,8.353659,1.95122
1.2285,-0.3354492,-0.1513672,-0.3574219,-111.3415,159.8171,134.7561,0.1630859,-1.262207,0.03320313,-37.37805,32.0122,3.353659,0.3325195,-0.7563477,0.4624023,366.3415,308.4756,-161.2195,0.2363281,-0.362793,0.8378906,2.682927,11.95122,0.8536586
1.2312,-0.2929688,-0.1108398,-0.3046875,-113.0488,166.0366,137.6829,0.2304688,-1.253906,-0.04296875,-26.03659,35.67073,-0.2439024,0.1308594,-0.7495117,0.4326172,367.6219,316.9512,-158.2317,0.2749023,-0.3564453,0.8564453,2.865854,12.56098,0.7317073
1.2339,-0.2958984,-0.07568359,-0.3237305,-115.7927,187.1342,141.8293,0.2495117,-1.251953,-0.07958984,-7.317073,40.36586,-3.780488,-0.2421875,-0.7114258,0.3837891,369.8171,318.7195,-148.4756,0.3242188,-0.3789063,0.8642578,5.060976,12.43902,0.6097561
1.2366,-0.3696289,-0.03417969,-0.3925781,-117.8049,200.2439,146.2805,0.2172852,-1.240234,-0.1240234,-0.3658537,39.7561,-1.646341,-0.4072266,-0.6723633,0.3681641,370.2439,312.439,-142.7439,0.3432617,-0.3989258,0.8286133,6.219512,14.32927,1.95122
1.2393,-0.4902344,-0.03955078,-0.4453125,-131.7683,218.5976,156.8293,0.1953125,-1.243164,-0.1049805,9.146341,32.92683,7.195122,-0.6782227,-0.5571289,0.3691406,370.1829,289.4512,-131.7683,0.3232422,-0.4726563,0.7827148,6.463415,17.68293,5.243903
1.242,-0.5620117,-0.06542969,-0.4570313,-138.8415,225.7317,163.7805,0.1455078,-1.237305,-0.04003906,18.35366,26.95122,17.0122,-0.7836914,-0.4902344,0.3857422,370.1829,273.4756,-126.7683,0.2988281,-0.5219727,0.8076172,5.97561,20.18293,7.5
1.2447,-0.7319336,-0.1601563,-0.4702148,-154.0854,231.0976,176.5854,0.1376953,-1.20459,-0.01806641,22.2561,26.89025,19.7561,-0.9545898,-0.3476563,0.4067383,370.5488,235.8537,-118.5976,0.2568359,-0.5942383,0.84375,7.5,23.90244,9.634147
1.2474,-0.8535156,-0.2304688,-0.4599609,-160.8537,228.7805,182.1951,0.1401367,-1.129395,0.01660156,28.71951,33.78049,16.82927,-1.019531,-0.2719727,0.4208984,370.4268,214.939,-114.3902,0.2016602,-0.5371094,0.8671875,9.268292,24.57317,9.02439
1.2501,-1.078613,-0.3769531,-0.4394531,-170.8537,211.6463,195.1829,0.1523438,-1.091797,0.01953125,31.15854,38.90244,12.68293,-1.108398,-0.1289063,0.4448242,368.1098,173.7195,-105.122,0.1665039,-0.4697266,0.8754883,13.29268,22.92683,7.256098
1.2528,-1.174805,-0.456543,-0.4213867,-173.8415,199.0854,201.5244,0.137207,-1.029297,-0.03759766,31.82927,46.64634,5.121951,-1.134766,-0.006835938,0.4868164,365.6098,154.7561,-100.2439,0.07763672,-0.3261719,0.7978516,14.57317,22.0122,6.829268
1.2555,-1.334473,-0.5751953,-0.3916016,-172.6219,171.5244,212.9878,0.09960938,-1.009277,-0.05761719,29.7561,45.67073,4.634146,-1.121582,0.03662109,0.4985352,360.3049,123.2317,-89.39024,0.03515625,-0.2851563,0.7319336,15.73171,21.76829,9.756098
1.2582,-1.387207,-0.6074219,-0.4067383,-166.5854,144.8171,221.8902,-0.01367188,-1.002441,-0.03417969,25.2439,34.08537,13.29268,-1.091797,0.08496094,0.5141602,354.5122,102.439,-76.82927,0.01220703,-0.3535156,0.6162109,14.57317,21.46342,11.95122
1.2609,-1.411621,-0.625,-0.4609375,-164.2683,133.6585,224.2073,-0.08056641,-1.005859,-0.004394531,24.32927,24.63415,20.2439,-1.066406,0.08740234,0.5268555,351.2195,94.93903,-70.30488,0.03857422,-0.4682617,0.5942383,9.146341,20.97561,14.69512
1.2636,-1.391602,-0.6176758,-0.4750977,-161.6463,117.3171,225.5488,-0.1503906,-0.9794922,0.03320313,25.30488,8.353659,32.13415,-1.020508,0.05126953,0.5654297,344.939,83.90244,-54.14634,0.1269531,-0.6987305,0.6601563,6.219512,17.9878,13.90244
1.2663,-1.296875,-0.5932617,-0.4907227,-160.8537,112.1341,224.7561,-0.1342773,-0.9365234,-0.00390625,25.60976,5.243903,34.02439,-0.9902344,0.015625,0.6020508,342.6829,79.2683,-45.36586,0.184082,-0.7475586,0.71875,7.621952,16.40244,12.2561
1.269,-1.144531,-0.5566406,-0.4492188,-162.0122,106.2805,220.7317,-0.08642578,-0.9121094,-0.04736328,23.04878,9.146341,28.17073,-0.9169922,-0.09472656,0.6733398,339.939,72.62196,-25.12195,0.2587891,-0.6489258,0.8125,13.10976,12.86585,8.109756
1.2717,-1.064453,-0.5380859,-0.4145508,-162.561,104.8781,218.1098,0.015625,-0.8964844,-0.1611328,18.53658,15,21.28049,-0.8642578,-0.1611328,0.7070313,339.8781,70.2439,-14.20732,0.2495117,-0.5200195,0.8349609,16.21951,12.2561,7.560976
1.2744,-0.9033203,-0.5136719,-0.3364258,-164.3293,102.561,214.3902,0.03027344,-0.9165039,-0.2089844,4.329268,22.86585,8.902439,-0.7431641,-0.2973633,0.7553711,341.0366,68.23171,8.536586,0.1572266,-0.2578125,0.7827148,19.32927,15.79268,11.89024
1.2771,-0.8330078,-0.5126953,-0.2875977,-166.5244,100.3659,212.6829,-0.006347656,-0.9941406,-0.2075195,-9.695122,15.42683,8.597561,-0.6762695,-0.3696289,0.7744141,342.6829,68.23171,20.06098,0.1098633,-0.2094727,0.71875,18.10976,17.9878,15.2439
1.2798,-0.706543,-0.4755859,-0.1923828,-173.4756,92.0122,209.2683,-0.01708984,-1.03418,-0.1557617,-12.19512,9.329268,12.19512,-0.5175781,-0.5048828,0.8027344,347.6829,70.85366,43.71951,0.105957,-0.3115234,0.6538086,11.89024,17.19512,19.7561
1.2825,-0.6586914,-0.4375,-0.1591797,-177.8049,89.14635,208.9634,0.02929688,-1.057129,-0.03369141,-5.304878,2.865854,17.7439,-0.4399414,-0.5678711,0.8032227,351.0976,73.65854,55.36586,0.2158203,-0.4916992,0.7832031,9.268292,14.26829,19.08537
1.2852,-0.6235352,-0.3833008,-0.09863281,-190.061,84.87805,210.3659,0.09423828,-1.047363,-0.01464844,1.829268,4.817073,15.60976,-0.3017578,-0.6582031,0.7709961,356.5244,81.82927,78.96342,0.2700195,-0.5180664,0.8413086,9.695122,8.658537,14.08537
1.2879,-0.6313477,-0.3735352,-0.07275391,-198.0488,82.2561,212.0122,0.2001953,-1.035156,-0.07080078,15.06098,11.58537,5.182927,-0.2407227,-0.6899414,0.7504883,358.9024,86.95123,90.60976,0.284668,-0.3901367,0.8466797,12.86585,7.012195,12.31707
1.2906,-0.6782227,-0.3691406,-0.04199219,-217.9268,75.18293,215.8537,0.1879883,-1.050293,-0.109375,18.23171,11.70732,1.95122,-0.1259766,-0.7177734,0.7036133,361.8903,99.2683,113.5976,0.2231445,-0.3120117,0.7998047,17.43902,9.45122,15.30488
1.2933,-0.7006836,-0.3706055,-0.03320313,-245.122,65.73171,217.9268,0.0390625,-1.118652,-0.09814453,20.91463,-1.280488,8.902439,-0.05224609,-0.7148438,0.6425781,362.8659,106.0366,124.2073,0.09228516,-0.3525391,0.6894531,16.64634,12.07317,19.32927
1.296,-0.7675781,-0.4003906,-0.02880859,-260.2439,61.7683,218.2927,-0.09570313,-1.171875,0.06396484,22.80488,-11.09756,16.76829,-0.02441406,-0.6992188,0.6137695,362.3171,119.0244,144.6951,0.03515625,-0.4746094,0.6708984,11.28049,16.89024,27.07317
1.2987,-0.8017578,-0.4287109,-0.03369141,-291.4024,54.45122,217.3781,-0.1396484,-1.175781,0.140625,33.53659,-21.76829,29.69512,0.004882813,-0.6552734,0.5698242,360.9146,124.8171,153.7805,0.03955078,-0.7666016,0.7441406,8.841464,16.70732,27.07317
1.3014,-0.8618164,-0.5009766,-0.06445313,-306.7683,50.54878,216.2805,-0.09912109,-1.118652,0.2089844,40.54878,-19.26829,31.21951,0.0078125,-0.6279297,0.5585938,357.3171,133.9634,169.2683,0.078125,-0.8452148,0.8164063,9.878049,13.23171,23.29268
1.3041,-0.9072266,-0.6113281,-0.09912109,-333.9024,42.31707,213.9025,-0.03613281,-1.080566,0.1865234,51.58537,-1.097561,21.34146,-0.00390625,-0.5810547,0.5727539,352.6829,138.1707,182.0122,0.1206055,-0.7329102,0.8935547,16.64634,5.731708,15.2439
1.3068,-0.9194336,-0.6806641,-0.1176758,-345.3049,37.5,212.561,-0.015625,-1.032227,0.08496094,49.7561,12.31707,5.914634,-0.02001953,-0.5595703,0.5888672,350.1219,138.0488,187.0122,0.1044922,-0.5952148,0.8842773,19.32927,6.158537,15.36585
1.3095,-0.9223633,-0.8203125,-0.1547852,-362.9878,26.58537,211.5854,-0.02294922,-1.022949,0.04638672,44.32927,12.07317,2.621951,-0.04345703,-0.5322266,0.6435547,345.9756,134.2683,195,0.06494141,-0.3994141,0.8242188,19.14634,7.378049,18.59756
1.3122,-0.9208984,-0.8955078,-0.1757813,-369.0244,21.09756,211.5244,0.02587891,-1.026367,0.05078125,31.40244,5.487805,4.02439,-0.05126953,-0.5258789,0.6733398,344.5732,130.4878,198.1098,0.05224609,-0.3691406,0.800293,17.68293,8.414635,20
1.3149,-0.8935547,-1.041504,-0.2021484,-373.7195,10.06098,212.3171,0.09472656,-1.011719,0.06933594,26.34146,4.939024,5.54878,-0.05908203,-0.5166016,0.7441406,341.6464,122.0732,202.6829,0.08398438,-0.3779297,0.8662109,13.84146,7.865854,18.23171
1.3176,-0.8789063,-1.110352,-0.2104492,-373.1707,5.121951,213.2317,0.2944336,-0.9682617,0.05957031,19.39024,13.47561,3.353659,-0.05224609,-0.5185547,0.7807617,340.2439,117.0122,204.5732,0.1293945,-0.3554688,0.9057617,13.90244,4.512195,15.30488
1.3203,-0.8393555,-1.219238,-0.222168,-366.7683,-3.109756,215.122,0.3745117,-0.9506836,0.02734375,16.15854,18.41463,0.4878049,-0.02978516,-0.5366211,0.8759766,338.0488,106.2195,206.7683,0.168457,-0.1953125,0.9052734,15.85366,0.5487805,9.817074
1.323,-0.8183594,-1.263184,-0.2236328,-354.8171,-7.743903,217.2561,0.3701172,-0.9550781,-0.02392578,8.963415,15.54878,1.463415,-0.001953125,-0.5512695,0.9233398,337.9878,101.0366,207.0122,0.1098633,-0.121582,0.8520508,15.60976,0.9756098,11.03659
1.3257,-0.7802734,-1.320801,-0.2246094,-347.5,-8.780488,218.4756,0.2226563,-1.035645,0.03125,5.853659,6.585366,7.621952,0.05517578,-0.5942383,1.020996,339.3903,91.46342,206.6463,0.07421875,-0.1943359,0.7802734,10.79268,6.585366,18.35366
1.3284,-0.7612305,-1.333008,-0.230957,-331.9512,-9.02439,221.2195,0.1308594,-1.078613,0.09912109,5.243903,-15.2439,27.68293,0.09228516,-0.6186523,1.067871,340.8537,87.13415,205.9146,-0.007324219,-0.5043945,0.6655273,7.926829,9.817074,20.79268
1.3311,-0.7280273,-1.335449,-0.2373047,-324.939,-8.47561,222.5,-0.0234375,-1.112793,0.2250977,8.231708,-22.98781,37.80488,0.1733398,-0.6767578,1.154297,344.2683,80.97561,203.5976,-0.02734375,-0.6640625,0.7036133,2.378049,8.292683,21.09756
